label,ax,ay,az,gx,gy,gz
0,14136,-4188,8008,116,259,439
0,13916,-3696,8452,-206,586,-65
0,14156,-4288,8032,-569,333,-626
0,13780,-3536,8492,-665,666,-835
0,14112,-3396,9440,-1561,236,-656
0,14088,-3664,9124,-6213,9805,-4661
0,14160,-3716,8148,-4578,7928,-3028
0,10760,-3692,10756,-2765,1102,-6424
0,15356,-2704,8244,1000,-3934,-639
0,12884,-1756,10372,-385,828,505
0,13532,-2120,10720,13,-1056,-334
0,13676,-1716,9644,404,-397,-408
0,12880,-2756,10160,647,-373,-564
0,14500,-1616,7320,3940,-3337,4762
0,14092,-8152,5348,435,-471,15468
0,9840,-56,14984,2627,2321,-6480
0,12128,-3632,11280,416,2226,258
0,13216,-2944,11844,470,2520,-755
0,13472,-4488,8424,-748,-744,4
0,13236,-4132,10664,-1805,2091,1569
0,12988,-5392,9280,-1476,260,654
0,12868,-4712,9604,-815,-363,-150
0,12592,-4772,9756,-528,262,216
0,12344,-5640,10328,-424,-520,-712
0,12516,-4492,10724,-732,376,-15
0,12500,-5392,9692,1947,1048,-2717
0,11932,-5096,11808,-1413,88,1837
0,12496,-6152,9372,151,-116,642
0,12440,-5212,10180,88,-972,902
0,12348,-4984,9924,-2327,-1599,5276
0,12596,-8396,6460,-7018,2905,8827
0,9568,-11500,9416,-3120,3308,3180
0,10404,-8904,8108,-1602,23,44
0,9868,-9656,8912,150,-668,-1336
0,9948,-10660,9856,1713,-1567,-3779
0,10964,-8512,9352,2158,78,-3416
0,12064,-8076,8860,1297,1400,-3645
0,11544,-6468,9960,1839,1663,-4736
0,11704,-6656,9504,-2469,-1064,5236
0,10988,-8856,10064,-627,215,1909
0,11628,-7812,9024,-10,186,1103
0,10612,-8744,10164,-123,609,-32
0,11080,-8232,9468,686,648,-226
0,11020,-8352,9696,-131,383,-350
0,10936,-8180,9552,16,646,242
0,11152,-10036,9924,132,-194,-4190
0,12224,-5252,5196,-951,2054,2879
0,11732,-7560,9564,756,-665,-685
0,11080,-8232,10424,1691,27,-955
0,11176,-6856,10312,3025,723,-2637
0,11160,-2980,14636,-2622,2179,-1260
0,12744,-7772,8232,-4375,851,-759
0,11044,-7904,9948,-3023,2177,-1206
0,11656,-7196,9148,-1923,-483,-375
0,11364,-7616,10016,-1995,362,91
0,11488,-8284,9208,-613,405,1127
0,11332,-7584,9112,-227,145,81
0,11684,-7752,9256,-711,553,1426
0,11208,-8936,9284,-1708,697,1902
0,9900,-9928,9676,2016,67,-1289
0,9388,-8812,9476,-468,1213,592
0,10356,-8804,10016,-1894,3400,2790
0,9304,-7796,9432,-1688,1343,931
0,9652,-11436,8696,4572,-1372,-3112
0,9284,-11072,10744,1417,2197,3436
0,10944,-7412,9684,4080,-1647,-1556
0,10776,-8336,9704,4476,-910,-2691
0,11300,-6436,10328,-125,1202,-1477
0,12260,-4984,9480,-3382,1111,1236
0,11448,-6820,10352,-3352,4382,849
0,11548,-8856,10684,-2344,2402,-216
0,11136,-7088,10092,-610,351,-1928
0,11560,-6752,9824,-504,112,763
0,12332,-7772,8968,-593,-527,123
0,11696,-7160,8976,-693,-37,490
0,11592,-6900,9776,274,-680,-457
0,12356,-7312,8228,-450,457,-455
0,11372,-5664,11308,-1757,2635,3949
0,10876,-7792,10512,1327,-1111,4729
0,11116,-6872,9972,1694,-3362,1593
0,10600,-8232,10192,-203,-1261,963
0,10252,-8964,10300,51,554,-469
0,10640,-7896,9920,168,146,219
0,11268,-7704,9024,540,453,-176
0,10868,-8044,9924,-51,526,188
0,10816,-9060,10000,-3543,427,47
0,9920,-3060,10148,1936,3435,-3265
0,10764,-11012,10056,-2210,740,1503
0,11416,-7908,9244,-530,926,741
0,11176,-7176,9436,-697,924,258
0,10688,-8316,9744,-52,221,-878
0,10712,-7956,10616,-16,234,-614
0,10948,-7248,10040,298,-308,-713
0,10976,-8044,9976,-272,719,-42
0,10824,-7464,10292,44,-657,-633
0,10976,-8016,9896,21,841,-252
0,11000,-7324,9740,161,166,-544
0,10840,-7964,10348,-457,338,393
0,11036,-7152,10508,-64,-249,78
0,10732,-7140,9872,81,938,410
0,10832,-7392,9512,132,-358,-492
0,10760,-8124,10232,-26,755,-207
0,10972,-7356,9856,-197,17,-478
0,10596,-8012,10000,-431,541,-117
0,11032,-7872,9968,-309,815,-533
0,10948,-7940,10156,-154,946,-1293
0,10308,-5312,11892,3121,-118,-3560
0,8776,-5792,13188,-2033,-319,-5839
0,13460,-7988,7776,-6326,-10516,-4982
0,13204,-7292,6164,-864,1110,-12724
0,14552,-48,7812,2083,-1452,-7600
0,16344,-672,6384,3208,-220,6650
0,13792,-4492,6728,2394,978,8380
0,10912,-4080,11716,-7674,6706,3466
0,14884,-7868,7244,-3950,-749,5495
0,12376,-7516,8336,3030,-2146,1136
0,13028,-6780,7928,3678,146,496
0,11712,-8924,8348,4274,-3094,1700
0,12476,-7568,8836,2273,2213,1273
0,12024,-7036,10320,357,-2594,-3270
0,12960,-4664,8552,160,1323,-2647
0,12752,-3736,10184,2,2160,-1273
0,12264,-5888,9720,30,2273,-2961
0,11704,-5612,9780,-2186,-1598,5281
0,12456,-5848,13496,32,2072,-1529
0,12744,-4764,9932,1665,2761,-4187
0,12160,-4152,10340,-1051,913,1355
0,11916,-7896,9208,-1254,624,-636
0,11984,-5808,10028,-200,-264,2876
0,11444,-6668,10368,329,-368,1684
0,11660,-6568,10132,-78,211,-5
0,11608,-6496,10492,71,-5,28
0,12036,-6576,9540,-1175,1146,-682
0,11828,-6516,10080,-185,361,28
0,11756,-6560,9948,-288,136,562
0,11704,-6648,9820,-185,290,164
0,11472,-6148,10148,-1396,-42,-158
0,12088,-7960,9360,-3536,877,113
0,11800,-7232,9300,1439,-163,834
0,11988,-7000,9300,1476,-571,1332
0,11524,-7212,11136,2445,-1272,982
0,11280,-6836,11160,-653,-1375,-2112
0,9832,-8704,11052,-5787,9863,-14171
0,13580,-2100,9372,3615,-13682,-6402
0,15840,-6448,2288,-8044,4210,-1121
0,13684,-2744,7052,-1249,2617,-5615
0,15488,-2164,8304,-1728,-1009,-2428
0,14104,-3672,8180,-965,-2840,921
0,15232,-3872,8236,-295,490,955
0,14324,-3868,7928,1967,-402,-2926
0,14716,-2428,7316,654,-214,-2019
0,14544,-3056,8016,-121,442,-289
0,14836,-2772,7496,-458,352,200
0,14500,-4036,7256,302,224,-418
0,14488,-3444,7296,109,167,-1026
0,14604,-3072,7408,-81,127,-119
0,14740,-2956,7588,217,338,-719
0,14412,-3328,7376,-537,253,513
0,14364,-4352,6748,562,-146,-999
0,14096,-4468,6264,2378,-1720,-6093
0,18208,-56,6120,-392,1795,5610
0,11104,-6612,7980,4204,1202,15220
0,14928,-5564,5472,13004,-8051,5683
0,11172,-6308,11208,3974,6817,1308
0,13304,-4400,10448,360,1454,-1740
0,13708,-4716,9692,-37,428,-1245
0,13604,-4244,10108,-2376,2613,303
0,14680,-5456,9512,-3730,4167,4432
0,12616,-8064,9380,-2216,762,1825
0,12440,-7284,7068,-782,-1160,1228
0,11528,-8292,8264,-577,7060,2785
0,9852,-8908,8708,-1189,250,6116
0,9060,-10112,8980,566,-1123,4012
0,8260,-9856,10060,69,22,2094
0,8288,-10248,9396,-220,729,332
0,9800,-10800,8992,322,806,-1901
0,9392,-10960,10180,-233,-282,-843
0,10476,-7828,10168,-740,1115,-1015
0,9212,-10628,10544,-3244,-3170,4850
0,7364,-9324,11172,888,-681,1617
0,10372,-11028,7284,-1459,2072,679
0,9092,-9744,9844,-1422,2844,6131
0,8088,-11804,8516,-1069,-194,5491
0,6588,-11216,9624,-494,1845,2388
0,7092,-11736,9740,570,1100,-1437
0,7636,-11420,9636,-855,1577,-1367
0,7416,-11872,9648,121,1149,-1086
0,7224,-11904,9460,-476,-510,-3993
0,8724,-11380,9592,2168,-1833,-7152
0,10104,-9572,9492,558,-3488,-2566
0,10824,-9952,8672,2379,-7872,-1824
0,12740,-8592,5720,7725,-19895,375
0,15148,-7652,4196,7171,-10859,1044
0,12036,-7724,7328,2999,-3589,1547
0,15040,-7924,2404,1983,-11988,-7263
0,14888,-5584,3548,3032,1081,-12016
0,18476,-1968,1920,-2867,3330,-5389
0,16536,-2740,3684,-12651,13082,1957
0,14628,-5356,6156,-8902,8177,1614
0,14760,-5380,6196,-3739,4091,1594
0,14216,-6672,6328,-2537,2675,1525
0,14104,-5364,7312,-1510,35,2232
0,11976,-7184,6040,-10215,14269,12330
0,7072,-12732,7556,-8928,13626,14102
0,7288,-14240,7656,-480,2848,-2238
0,8120,-12436,8468,-9,797,-1609
0,8756,-12148,8156,982,1036,-540
0,8104,-12148,8184,-700,-350,1100
0,8140,-12508,8172,1449,-1496,596
0,8160,-12168,8228,1944,-1022,1367
0,8932,-12428,8100,3336,-1471,-415
0,8208,-10744,9180,3340,-8007,529
0,9728,-11236,8156,2992,-2998,-87
0,9512,-10616,9200,2565,-6165,1017
0,10796,-10580,7684,2756,-4008,-41
0,10296,-9836,8724,250,-776,1050
0,10212,-10320,8304,682,667,-641
0,10072,-10436,7844,6,-846,-249
0,10384,-10428,7924,2068,-965,-1256
0,11312,-9104,7872,1118,-1819,-783
0,11204,-9220,8676,423,1335,-1190
0,11036,-9132,8208,-759,858,-71
0,11408,-9176,8552,160,1640,-636
0,11012,-9256,7872,-869,491,-365
0,10980,-9080,9112,-119,1379,-378
0,10988,-9480,7732,-372,41,-200
0,11044,-9148,8992,-28,499,40
0,11008,-9292,8184,-406,290,-218
0,11068,-9184,9132,-324,79,346
0,11004,-9376,8228,-310,163,-324
0,10984,-9300,8924,-191,123,121
0,10984,-9300,8408,-54,410,-171
0,11080,-9128,8680,-495,769,237
0,10896,-9432,8324,-24,410,-342
0,11140,-9312,8432,-527,429,142
0,10852,-9344,8448,320,871,-967
0,10908,-9244,8648,-340,105,119
0,10880,-9060,8800,493,297,-471
0,11096,-9172,8912,-674,630,-52
0,10616,-9248,8632,-70,227,347
0,11168,-9136,8584,-380,373,-383
0,10744,-9412,8856,-567,310,181
0,10476,-9692,8244,-672,553,-659
0,10824,-9104,8852,332,1183,-1358
0,12152,-9096,7552,-345,2055,-1051
0,9340,-9476,10520,-998,13150,5001
0,7780,-10280,10476,2975,-16472,-782
0,11260,-9040,8488,4308,-14306,-1467
0,12928,-8524,6204,3492,-4870,-489
0,12752,-7204,8300,4144,-5942,95
0,14392,-6776,5528,3522,-10198,5013
0,14312,-9136,3816,-252,-8244,9043
0,12784,-10688,2068,-2571,-1292,6308
0,11892,-12108,3144,-2139,2133,1519
0,12008,-11728,1940,-2996,2867,4667
0,10132,-13380,2824,-3371,8760,1567
0,9352,-12772,4108,-4450,14731,1557
0,9404,-13352,3156,-3276,20331,943
0,5744,-13636,7248,-1670,22619,-4523
0,7428,-13736,7240,169,4678,-1518
0,6264,-13532,8580,1442,10416,-3495
0,4960,-12864,9952,1449,3038,-11705
0,7576,-10164,9696,1767,5085,-15393
0,10372,-8220,11084,3161,-3058,-10079
0,11456,-6948,8988,536,-1122,-5512
0,11568,-6692,10892,4527,-9367,2444
0,12256,-7260,8324,1111,-2102,3365
0,11860,-7100,9804,2748,-4545,1638
0,12896,-7376,7236,576,-2144,4291
0,12748,-7760,8048,1743,-3721,4081
0,12020,-8656,7300,1646,-4338,4796
0,12176,-8508,7760,2174,-3903,2587
0,12044,-9344,5856,2146,-9907,3984
0,13852,-8876,5540,1340,-2405,661
0,12132,-9796,4940,172,-4253,3859
0,13324,-9920,4188,995,-170,3678
0,10316,-11384,5200,-1347,7057,8141
0,9920,-12408,5284,1029,6363,3254
0,8356,-12292,5192,1018,6360,1458
0,8836,-11920,7544,3076,-4528,244
0,7816,-11700,8024,2661,-8351,1140
0,9020,-13624,7460,3079,-26875,3762
0,9896,-12808,4524,4774,-18503,3817
0,10672,-11828,2256,1574,-8315,1408
0,10408,-12680,-484,1579,-24597,5223
0,10408,-14340,-2176,-5076,3717,2462
0,7104,-13808,556,-4757,16319,-3233
0,10252,-14328,-4776,-1755,22002,-1307
0,9932,-13636,748,4763,27417,2729
0,6384,-13280,6884,-625,7834,2320
0,9272,-13180,5320,433,4960,-2714
0,10156,-13520,3888,719,11313,1037
0,8164,-13868,6500,1494,7238,1343
0,6868,-13700,6320,-1686,1722,523
0,7364,-13608,6588,-242,2632,-1485
0,7380,-13036,7064,-975,2705,796
0,8696,-13812,6624,577,9479,-327
0,5212,-13180,8240,-3180,8601,3518
0,4924,-15108,6376,-1199,5993,4265
0,2452,-13972,6888,-1401,-1020,4064
0,2088,-16016,7080,-432,-6064,1577
0,2812,-13928,7984,-951,-155,753
0,3596,-15184,8180,-234,1642,-2309
0,2252,-14184,7504,-2018,3477,1494
0,2036,-14948,6828,803,4211,397
0,1332,-14696,7508,-407,3714,1279
0,1840,-14400,8324,-82,4963,833
0,796,-14672,7308,-3165,284,-1865
0,2428,-13984,5180,266,2357,-594
0,296,-14324,6460,-982,1143,1736
0,1572,-14656,6812,51,4177,1862
0,1172,-14196,5252,-3867,-2633,5816
0,-1264,-15284,5832,-2813,1998,4830
0,-2468,-15436,3708,-2139,-1867,1759
0,-1476,-15088,5112,3437,2684,676
0,-2732,-14356,6620,-203,-681,216
0,-1512,-14764,4560,1249,-4038,-2608
0,-1092,-15016,7812,4188,-1104,-6757
0,2292,-14352,8004,4121,-1809,-8771
0,2396,-13808,7816,3112,-3094,-8293
0,5976,-12892,8052,3334,-3603,-5708
0,6828,-11616,9300,1847,-63,-2698
0,6304,-11348,10308,938,-1249,-2601
0,7200,-11936,8848,1615,-1183,-3276
0,7708,-10588,10464,2060,-1248,-3161
0,8400,-10764,9300,967,-586,-1250
0,8676,-9572,10192,6,-663,238
0,7272,-10796,10080,-1412,933,1131
0,6024,-11504,10416,-1685,-1850,574
0,8976,-11064,8396,2724,853,-3762
0,8116,-10232,10700,5353,-4994,-4182
0,9248,-8688,6668,3836,-8451,-3641
0,12148,-6072,9072,11437,-4088,-11966
0,14460,-36,11956,9150,-4383,-13409
0,15724,1132,12172,475,725,-1544
0,13640,-828,8432,-2266,938,1797
0,12820,-2108,9420,2324,-1339,142
0,13432,-684,9344,2052,869,-952
0,13980,1076,11532,719,102,-1284
0,13656,-576,9296,-910,1805,-32
0,14128,-72,9000,-24,-357,893
0,14332,-188,9608,-489,-1018,2580
0,13452,-1592,8476,-1511,-1846,3989
0,13008,-2364,8168,-1402,4293,493
0,11972,-1140,9528,-2090,-1193,-1852
0,12960,-1592,9472,-1242,499,-6629
0,14248,-928,9652,-1276,1987,-4020
0,14252,-900,8932,-874,-104,-3128
0,15032,720,7748,5536,-11090,-1881
0,14788,1064,9588,-1856,2954,-973
0,16088,52,7336,-3024,544,-893
0,14076,-416,5512,2395,-2606,-4634
0,14140,-3000,12208,5514,-10895,-276
0,16096,984,6192,756,-5847,-307
0,14112,3136,5972,1472,-4779,-3275
0,16632,3108,3264,473,-1989,-1373
0,15704,4672,4568,176,-4702,-911
0,15452,3100,1640,-912,1733,-712
0,16696,4464,2600,-21,-1775,-442
0,14984,3568,2544,-530,728,-1286
0,16928,4384,1756,-528,-4193,1508
0,16296,4212,1968,-108,2041,-1680
0,18152,4476,2288,-111,4808,3444
0,15976,3392,5296,-1024,6163,3898
0,17652,1684,4624,-2477,5236,5790
0,17008,532,6948,-3286,8249,3819
0,15464,-444,7568,-3680,2746,8946
0,14668,-4176,7744,-2845,3520,10324
0,9832,256,5272,-6616,604,13537
0,15172,-3948,3192,-2700,-10296,14395
0,12528,-11024,1540,247,-14830,15671
0,9860,-12672,1340,-669,-5379,4108
0,9032,-12608,480,-300,-7136,5800
0,7980,-15192,680,-1473,16013,4002
0,7524,-13524,2016,-2794,1313,8153
0,6968,-15384,1384,-965,11826,5191
0,4388,-15596,2664,-116,-38,5416
0,4912,-15448,3316,264,6951,3191
0,1780,-16124,3768,-778,9495,3313
0,4568,-14324,3024,-2459,-3348,-764
0,3488,-15524,1996,-1930,6760,2927
0,144,-16176,2412,4091,14630,2887
0,1160,-15812,2320,642,1503,-2316
0,1468,-15372,2676,5116,9523,1060
0,-368,-15280,4800,9856,14591,-4950
0,-468,-14100,8032,9188,11030,-9266
0,3056,-13316,9068,4533,-379,-13031
0,5884,-11704,9360,1379,-1623,-4514
0,5500,-12276,9636,977,-2891,2662
0,3684,-13504,9532,304,-5407,2492
0,4200,-10836,12768,-527,-9565,-1075
0,6760,-14504,4436,-2505,-32768,2973
0,9624,-13780,4224,2567,-12777,2550
0,8020,-13924,3856,-839,-16314,3991
0,8868,-13916,520,920,-5122,1969
0,10868,-14660,-532,228,-3360,1339
0,8608,-13092,3004,292,2153,1888
0,8884,-14772,1544,502,3068,113
0,7188,-14560,2952,-943,-559,1957
0,8912,-14536,956,-295,-144,1080
0,7496,-14520,632,-1662,1146,1805
0,8280,-14656,384,-46,1447,301
0,6544,-14808,684,-1888,-33,1629
0,7560,-15192,384,-1347,2418,861
0,7212,-15100,-412,-2227,-697,2606
0,5776,-14616,-604,-1107,3254,2263
0,6068,-15776,-264,-109,-119,-1258
0,6336,-15256,392,1042,4187,-1368
0,7420,-15912,808,2275,2783,-830
0,6612,-14444,1356,1015,4676,2846
0,5472,-15644,1348,-2600,11667,8426
0,2504,-15460,2032,-2555,14110,8861
0,2176,-15620,1132,-2561,4517,7039
0,-1624,-16688,2172,2091,3660,8075
0,-3448,-15476,1756,4680,7415,5277
0,-4604,-14904,2676,6393,7890,1051
0,-4668,-15424,3740,3556,5749,1738
0,-5924,-14712,3748,-1191,-1165,234
0,-4616,-13376,3380,1758,1810,970
0,-5340,-14828,3536,-1836,1677,2011
0,-6916,-14164,3808,102,2027,538
0,-5240,-15140,3308,470,530,507
0,-6504,-14340,2912,-1476,-686,-989
0,-4936,-15184,3916,531,-625,-1846
0,-5440,-14364,3552,-1103,-911,-1476
0,-4744,-14492,3964,893,867,-466
0,-4676,-15056,3092,759,-505,-1617
0,-4772,-14980,4640,3240,2208,168
0,-5560,-14784,5368,311,-1486,-1832
0,-5536,-14232,4852,2088,1384,-312
0,-4036,-14476,5032,719,-2246,-2021
0,-3448,-14500,7112,470,339,-822
0,-3592,-15040,5572,-2474,-2525,-1154
0,-4256,-15140,5744,1087,326,93
0,-4012,-15060,4932,-870,-1765,854
0,-4144,-13896,5868,3234,-2097,-4261
0,-1776,-15664,7188,5147,-4515,-12677
0,1520,-11688,9468,3230,-2574,-8248
0,3192,-12344,9060,921,-1128,-3661
0,2420,-12648,9260,-546,563,-4107
0,6132,-16228,6716,-1264,-2373,-7241
0,5632,-12868,8068,-2351,1624,-2392
0,7000,-14376,6644,364,889,-2996
0,5584,-13280,8512,-1476,-499,2392
0,4120,-13868,7340,-454,271,4151
0,3892,-14280,7756,225,179,-303
0,4440,-13456,8772,60,1939,362
0,3012,-14196,7240,-1556,-1420,114
0,4124,-13932,8264,815,1386,-1072
0,4508,-13316,8456,216,33,593
0,3808,-13872,7536,-640,-900,-711
0,5296,-13848,8480,1742,1708,-1055
0,3976,-13652,8132,-1584,-1320,143
0,4104,-13704,8676,888,1592,-283
0,4952,-13904,7436,-654,-659,-511
0,4236,-13796,9348,530,825,516
0,4936,-13552,7496,-651,461,51
0,3808,-13368,9112,-333,718,954
0,4352,-13896,7428,-426,-300,-413
0,3964,-13808,9176,-288,-301,199
0,3924,-14008,7632,-527,-239,-29
0,3280,-13664,9360,-1356,380,-100
0,4904,-13916,7204,384,1313,230
0,3316,-14496,7800,-1767,-839,-225
0,4092,-13716,7380,1409,321,176
0,3344,-13792,8708,-1532,-1030,-585
0,4680,-14100,7480,1427,1462,-313
0,3948,-13940,7944,-1330,-634,-696
0,3444,-13980,8292,46,210,203
0,3876,-13968,7928,-564,-373,-909
0,4320,-13432,8840,411,1493,-63
0,4660,-14244,6732,-673,-444,-564
0,3604,-13964,8852,125,-18,76
0,4568,-13944,7388,106,-244,-720
0,3964,-13376,9144,-103,256,640
0,4436,-13852,7632,-57,436,-390
0,3944,-13712,8868,-864,376,228
0,4196,-13768,7668,-45,1179,-634
0,3360,-13732,8764,-966,160,-240
0,4380,-14028,7888,613,830,-844
0,4200,-13744,8444,-711,-267,-67
0,4472,-13704,8236,662,814,-412
0,4440,-13892,7768,-1014,-571,-271
0,4508,-13616,8732,636,1044,22
0,4020,-13724,7856,-899,-444,135
0,4228,-13648,8724,866,967,-425
0,4504,-13560,7668,-792,-107,-336
0,4052,-13680,9000,157,633,64
0,4080,-13524,7788,-666,-9,-490
0,5344,-12560,9224,1159,2141,-4951
0,5672,-12452,8436,-3604,1031,-4398
0,5648,-13004,8372,-4050,3363,1755
0,5004,-13560,6752,-6652,668,-1231
0,4828,-15040,6720,-6915,3204,-4218
0,6168,-14628,4648,-3582,1430,-6864
0,7156,-13924,6096,958,-2763,-3332
0,8580,-13620,3512,-2590,1494,-5198
0,8940,-12804,4060,-557,188,-4162
0,9328,-13204,3316,1297,834,-3006
0,9852,-12792,4476,942,70,834
0,10148,-13316,3784,4336,-3904,-412
0,9396,-12740,4096,10369,-7267,159
0,11460,-11296,5284,16667,-12457,-4782
0,14828,-10504,5432,6368,-7206,-3535
0,14312,-6712,7760,6762,1154,-2807
0,12620,-5596,5664,668,246,1193
0,11612,-5476,6892,-859,13946,-224
0,10696,-6044,14004,-3368,7798,1975
0,10828,-7668,10304,-1959,5140,2623
0,11160,-9420,8552,-1044,906,3624
0,9952,-8308,10260,-363,4129,1692
0,10488,-9468,9244,-269,866,448
0,9440,-8824,11148,-665,1375,688
0,9068,-9664,10512,-829,754,327
0,8424,-9976,10364,-1682,1346,2729
0,9352,-9800,9776,-637,156,-749
0,8376,-10440,9528,-1106,861,1292
0,8832,-10148,10612,427,511,-927
0,8304,-10292,9916,-1380,773,1197
0,8128,-10020,10040,290,-63,1357
0,8072,-10920,9692,-1237,778,1932
0,8544,-10340,9404,-2765,3937,-22
0,6496,-12004,9888,-1858,859,-2451
0,8288,-10792,9412,385,-1545,486
0,7704,-11804,9784,492,-2522,2956
0,7236,-11116,9984,-794,1374,3879
0,6240,-12764,10272,-3160,5218,435
0,5680,-12716,9212,-2892,944,-1943
0,6548,-12616,9320,1406,130,-6282
0,7484,-11596,9308,3519,-3256,-4310
0,9184,-9996,10016,6871,-8161,-5163
0,10940,-8888,8984,4826,-11413,1467
0,12676,-7456,7332,7389,-20690,3866
0,13124,-9316,4056,3364,-14605,7861
0,12556,-9624,4216,1346,-5992,6614
0,14236,-11268,1004,-1710,1530,2600
0,12292,-10904,2248,-4376,8013,1538
0,10016,-12932,3180,-1831,25793,-1638
0,8036,-10672,9844,1254,9898,-1758
0,9560,-10292,9144,2584,567,1126
0,7440,-10944,8668,593,-7723,4636
0,8624,-10964,8968,-115,-203,2690
0,8100,-12352,6804,-1095,3703,1413
0,8756,-11396,8224,1251,1072,670
0,9016,-12392,7692,117,-335,224
0,7468,-11872,8352,-196,1370,1354
0,8768,-12848,7944,-67,1198,1003
0,6116,-11880,8808,-1331,4003,2997
0,7472,-12864,8444,-908,3512,3890
0,4536,-13728,8460,-2626,3939,5194
0,4380,-13860,7672,-1241,2218,4399
0,956,-14304,8660,-2648,3064,3642
0,1408,-14992,8112,-761,2190,824
0,2332,-14608,7524,-3822,-2031,-949
0,3160,-13796,7156,-2453,708,2398
0,1108,-14696,5528,-4927,424,4848
0,-560,-15128,5796,-5213,2698,3304
0,-232,-16328,3308,-2661,89,1123
0,-2076,-15440,4420,-157,1752,175
0,500,-17256,3916,2413,-926,-8533
0,2208,-14140,5540,3479,3503,-392
0,3020,-15444,5188,332,-1421,2264
0,-1184,-15420,6916,-2875,2190,5080
0,184,-16388,4524,-1734,2278,2245
0,-2624,-14864,5128,-2329,-1092,841
0,-24,-16116,3148,2367,85,782
0,-2640,-16008,6960,754,2753,2376
0,-1112,-14976,4124,2591,3663,2364
0,-3084,-15168,5356,835,-381,246
0,-2960,-14788,6516,1396,1820,609
0,-2564,-15496,5392,-252,-385,-2495
0,-2528,-14788,6280,864,1632,-1413
0,-244,-15536,5812,-143,-2134,3157
0,-4820,-15296,6316,919,1049,3237
0,-2628,-15156,6888,2223,-6640,-1365
0,-4416,-14000,9820,1119,622,414
0,-856,-14664,7972,567,-10810,-6718
0,-624,-14592,9288,774,-6624,-3575
0,2432,-15192,6888,-357,-5150,-2784
0,1776,-14768,6896,-355,-1829,-6792
0,6248,-11952,9576,3526,9272,-7824
0,4368,-13016,9840,631,-1410,-6585
0,6268,-16500,9340,655,2339,-7176
0,7292,-8572,11412,2583,-2929,-7821
0,8748,-10948,9552,-1236,48,-4241
0,8352,-11656,9240,-1339,-334,-7198
0,9428,-8292,9756,3570,-1890,-13969
0,12320,-5992,10000,-1208,-2407,-12143
0,14520,-3136,8824,726,-2796,-5730
0,14920,-4348,7712,2318,-9858,8143
0,13376,-7144,6668,2755,-14099,13848
0,14304,-9296,2068,828,-13197,10806
0,12120,-10784,2472,-1718,-2560,8630
0,11680,-12352,1628,-2373,7948,4643
0,12276,-11868,712,-3229,16358,7906
0,3424,-13564,5232,854,32767,11387
0,2872,-14484,6140,-2760,-822,3338
0,3252,-13096,7304,1154,19128,9882
0,-1060,-14056,6200,-4245,5889,8454
0,-2856,-14136,4412,-4038,3880,9376
0,-4400,-15596,3176,-6343,-5715,5161
0,-6644,-12984,5036,-822,268,4290
0,-4676,-14908,4052,-2517,-227,795
0,-6112,-14384,2356,-3499,-846,1321
0,-7412,-15232,4956,-1439,-6839,-1188
0,-7556,-14468,5688,137,-790,-654
0,-5296,-15472,4032,-1329,915,1443
0,-6408,-14296,2560,-2362,-130,-448
0,-6252,-13812,3272,2152,2449,-1
0,-5476,-14348,3108,220,-849,-656
0,-6828,-14564,3920,382,2103,1571
0,-7020,-14128,3224,-199,423,-444
0,-8128,-16084,6792,714,-3036,-5479
0,-5304,-15776,5560,-2705,-1538,-43
0,-5288,-14884,4092,-11338,-14097,-817
0,-2336,-18060,208,-16302,-26012,-13781
0,-340,-18328,-440,-382,-969,-4107
0,-2272,-17424,2520,-3515,-14456,-7585
0,5036,-15260,-3616,-4484,-31355,-6358
0,6008,-11940,-4584,-752,-10064,-4899
0,6768,-14676,-5104,-742,1187,-167
0,3616,-17060,-2308,45,3793,1303
0,1020,-16716,2068,922,7294,2942
0,920,-17432,2848,395,6475,3320
0,-144,-16884,2140,-1009,11099,5515
0,-272,-16984,484,1629,4443,1372
0,1284,-16436,-784,454,5971,3387
0,-560,-16236,1436,3168,9896,3368
0,300,-16144,160,-627,-1335,581
0,704,-16404,-504,1376,3967,2625
0,-500,-16104,556,1532,4380,1744
0,224,-15540,2072,-424,2103,2787
0,-1800,-17516,-904,-8329,-4120,341
0,-1836,-17032,-3028,1781,7223,3272
0,-2584,-16516,-1300,1636,5545,3114
0,-3168,-15168,-1724,3487,10891,6994
0,-3804,-15948,-1188,1534,5412,4930
0,-5680,-14668,-648,4153,5998,4141
0,-5276,-15480,464,3422,1417,2574
0,-6416,-12764,2188,5752,1544,1353
0,-7184,-14144,2280,2036,3442,1370
0,-7328,-14540,2140,-389,1627,-857
0,-6296,-15024,2208,-473,747,-337
0,-6456,-14324,1852,-1804,-69,-508
0,-6764,-14648,2632,-360,1028,24
0,-6184,-15152,1692,-1267,-1278,-1645
0,-6264,-15088,1708,322,985,-213
0,-5552,-15856,1888,1747,2319,-3180
0,-5768,-14944,1732,14,1155,-735
0,-4168,-15560,2076,1740,731,-1972
0,-5372,-15104,2020,-543,582,-2471
0,-3564,-16180,1264,2391,1226,-2956
0,-3164,-15116,3448,805,-379,-2042
0,-2620,-15856,3024,1803,589,-804
0,-3240,-15688,2564,1063,1704,-581
0,-4160,-15036,6076,-2329,1083,-532
0,-2156,-16236,1344,-1284,1497,2031
0,-4488,-14576,3224,-335,930,717
0,-3348,-15876,2708,399,-15,-1689
0,-3984,-15724,3356,-816,40,-1009
0,-2144,-16768,1596,1230,-379,-1012
0,-3380,-15636,3672,-1735,-316,1079
0,-1872,-15908,3368,-1382,1417,2125
0,-3940,-16088,1372,-2782,697,2027
0,-4600,-16452,2540,1583,2775,789
0,-4752,-15832,2492,808,1002,1279
0,-4364,-15508,2916,929,1995,1225
0,-4332,-15640,2212,-202,570,11
0,-4960,-15020,3180,856,2173,548
0,-4888,-15176,2892,-172,767,-115
0,-4756,-15104,2912,1483,2546,425
0,-4572,-15184,3204,-737,-404,-36
0,-6060,-14444,2944,-290,826,782
0,-4540,-15332,3020,-565,-1463,-337
0,-5212,-14356,3100,-1362,-449,-222
0,-5424,-14908,3936,-983,-3128,-1239
0,-5116,-15240,2804,-3184,-2970,-1827
0,-4324,-17532,2164,-1290,-4689,-7799
0,-2236,-15376,2500,-2989,-10387,-9763
0,-404,-18020,1064,-939,-10814,-11899
0,5892,-15244,156,232,-8217,-6448
0,6136,-13820,1360,1194,7767,5337
0,1632,-15976,2540,-2791,5435,8180
0,-1024,-16056,2172,1202,2667,715
0,1312,-16116,304,-557,-1794,-2358
0,2224,-16224,436,357,-2278,-3183
0,1868,-16308,2012,-2694,-3004,-3418
0,3872,-15448,324,-4507,-2212,-860
0,5352,-15320,-2716,-2261,6631,1633
0,2324,-16896,-2424,-2257,15239,12724
0,-1044,-17060,-28,1000,7795,10544
0,-3200,-15652,-592,8283,2630,8928
0,-4644,-15492,1936,6861,3940,6595
0,-6060,-16136,3256,1737,1602,3231
0,-6616,-15620,2952,2183,4567,2399
0,-7448,-14920,4260,-1154,-1550,-39
0,-5968,-15404,2852,-818,-1476,470
0,-6276,-14620,3300,179,898,-76
0,-6408,-14808,3140,1561,3582,3180
0,-7340,-13636,3988,788,-1186,-1301
0,-7340,-14268,4456,4034,2555,624
0,-6120,-13828,4328,139,-1682,-2033
0,-6740,-13880,4944,837,481,-289
0,-5760,-13924,4508,-1093,-397,-479
0,-6760,-14436,4876,-292,318,268
0,-6824,-13812,4880,1251,1051,347
0,-7444,-13616,4648,1060,2781,1073
0,-6132,-13704,4552,-1386,2544,500
0,-6756,-14480,3008,-1525,1389,734
0,-6688,-14628,4780,-3637,-3244,-2595
0,-7132,-14012,4504,67,2336,-195
0,-6240,-15460,2660,-2071,28,-1149
0,-6764,-14024,3808,-555,-168,-1071
0,-5556,-15308,3936,743,-1844,-1480
0,-5648,-14488,4256,872,-272,-1278
0,-4948,-14828,5056,966,-987,-1346
0,-4688,-14796,3820,60,-1040,-2213
0,-3060,-14996,2772,6280,997,-2118
0,-3820,-13152,6440,4745,2600,-7945
0,-2040,-15068,6612,3113,506,-2495
0,-496,-11892,7816,2044,-395,-3168
0,-1796,-13612,9480,-112,1737,169
0,-2236,-14204,6304,837,-3390,-3152
0,-1108,-14732,10080,1831,-335,-5939
0,3068,-12580,6652,-169,-10286,-5438
0,1560,-13912,8612,-888,7509,835
0,2364,-14104,8548,1176,295,-629
0,640,-13536,9524,-2472,1140,1492
0,1488,-14364,7928,-694,1906,376
0,700,-13960,8156,-2518,1393,1030
0,1088,-14132,8108,525,1716,146
0,1060,-14312,7596,-1368,-123,440
0,444,-13752,8780,369,1245,608
0,728,-14496,7052,-1511,-277,-731
0,-332,-14460,8800,-790,1183,505
0,680,-15024,6720,-1189,388,-269
0,836,-14576,8104,-15,915,294
0,156,-14592,7224,-904,-439,241
0,-172,-14332,8156,-635,691,47
0,884,-14464,7152,306,198,-195
0,-40,-14504,7924,-1426,-158,105
0,572,-14920,7220,659,1297,-517
0,-4,-14672,7636,-1416,270,624
0,728,-14812,7288,767,878,331
0,-880,-14604,8128,-2025,-3272,-389
0,-428,-15244,9356,171,1354,-2517
0,1904,-13784,6168,-1965,-14014,-6783
0,3624,-14864,7096,499,-3274,-5480
0,5140,-13632,5744,496,-8182,-5976
0,7008,-13888,5704,1667,-4296,-6581
0,8904,-12268,5136,764,-6532,-5179
0,9612,-12196,5860,2167,-1186,-5041
0,11324,-11164,4564,823,-2921,-2081
0,11960,-11088,4336,1618,-5645,-4266
0,11700,-10676,3596,840,-2747,-3451
0,12076,-9404,3228,-2225,17159,-8268
0,9728,-10820,5716,-3615,19644,-10261
0,9224,-6708,13728,11185,-4697,-7276
0,12248,-2324,10236,7944,144,-380
0,10484,-3452,12096,7759,816,2435
0,14800,-2728,9324,9443,-7122,1052
0,12688,-176,13596,2236,399,6732
0,13436,-792,13668,783,942,6931
0,12680,-3704,12916,-4489,2608,7414
0,10564,-3908,16136,-540,2183,-2163
0,11368,-1668,15460,-2514,-2225,-18407
0,14768,6360,10908,-4958,-3724,-14001
0,12812,3320,7676,-6850,-13065,-12249
0,15296,2396,6316,-5153,-1740,-6882
0,15664,1400,8052,-3540,-5604,-3852
0,13820,4340,7836,-12116,-3195,-2652
0,14984,4,6588,-10593,-3665,-3778
0,11484,1708,6828,135,-7168,-10807
0,22112,8020,2876,2053,-16248,-1711
0,15580,5020,2096,510,-916,333
0,14448,5652,4820,-663,3334,935
0,15068,5160,5096,-180,888,954
0,15112,5108,5600,-1879,-423,2129
0,17908,5500,2908,-8029,2052,8258
0,15968,1780,5260,-10355,7230,12462
0,19676,-156,5088,-3519,1060,9606
0,10536,-6812,7740,-9071,6082,20011
0,9112,-12736,5708,-7003,11240,10622
0,4540,-11716,7780,-6794,8569,11033
0,7220,-10720,2536,3893,-3517,-1128
0,11804,-10460,7232,3980,5077,-7839
0,11032,-11304,7420,-304,8529,6109
0,10104,-14212,7136,-6956,7794,-642
0,6584,-15556,6224,-1544,-208,-2718
0,8392,-14588,5116,-1642,-2944,-694
0,9108,-12240,6072,-853,-2251,1483
0,9000,-12644,6380,-1898,-3684,3748
0,8968,-13220,5540,-867,-2461,1620
0,8728,-13052,5392,133,306,-230
0,8064,-12900,5620,-1041,-847,562
0,8380,-13060,5076,58,-331,1324
0,8140,-13544,5268,-1834,-224,692
0,9008,-14092,4868,-1204,-966,-107
0,8604,-13576,4496,-89,-496,-1660
0,8712,-13480,4532,-283,-139,-1330
0,10088,-12924,4420,-591,-1407,-4278
0,11328,-12588,4012,419,-2025,-10300
0,11504,-8512,5968,1040,228,-6798
0,13196,-8204,2980,-1137,-6415,4779
0,14164,-9232,616,11410,637,3603
0,8352,-11536,5348,20223,-4604,-7080
0,10016,-7344,6644,26704,-11112,-25052
0,11524,11552,18936,4024,8415,-10126
0,18840,3408,1476,-4162,-11207,3095
0,14696,908,6876,195,2551,780
0,16292,1404,5180,-806,2477,3915
0,17924,-3988,11192,-3409,5767,5604
0,16492,1336,8176,6852,-16694,658
0,15400,1768,5448,7622,-9159,2329
0,12944,-4,4432,7705,-10347,10003
0,13124,-4084,1756,-3305,-2394,9384
0,16256,-4520,-2824,-4528,-1959,5952
0,16256,-5004,-1556,-2829,16576,-3945
0,14548,-3788,4584,-1622,104,364
0,15548,-5212,1820,1850,-12551,1906
0,17204,-4584,-1988,1546,-15655,3505
0,16948,-3512,-2540,-697,-820,-3442
0,15508,-4912,-2264,-1401,-11670,-2669
0,16624,-3708,-5936,-1067,-13722,4067
0,12404,-4352,-7084,2551,-9573,1754
0,10340,-5132,-9040,2080,-16714,5248
0,9404,-8276,-14536,3298,-20568,19
0,7580,-9224,-12296,2661,5526,2746
0,4656,-8744,-11136,2613,-5474,518
0,3928,-9108,-14100,4427,-14891,-3917
0,4440,-9104,-14716,4753,-2721,-4728
0,4708,-9044,-15084,1040,-6361,-1789
0,3036,-8872,-11204,1484,167,-587
0,4188,-8628,-14928,-2769,3013,2024
0,6772,-7472,-16968,-3739,5660,291
0,5504,-7496,-13872,-2868,3565,2593
0,4284,-7940,-11916,665,10884,2106
0,6368,-8528,-11880,-1018,16749,2347
0,9216,-8504,-13060,-24,5311,2036
0,7964,-8040,-9464,-816,1863,1777
0,9592,-8208,-11808,-3403,3583,2049
0,9888,-8104,-12464,-2905,-3800,1051
0,8396,-7840,-13624,219,3084,-209
0,9144,-8388,-11908,-1001,3032,128
0,9008,-7552,-11804,-576,3228,1097
0,9252,-7660,-11716,-4535,445,3046
0,8044,-7736,-12700,-1513,666,2023
0,7868,-7600,-12260,-519,-250,862
0,7732,-7512,-12780,2735,-3477,-1115
0,8712,-7264,-13372,1734,-1996,-4543
0,9152,-7180,-11348,-1957,3610,954
0,9192,-7016,-13884,-860,1658,2750
0,9540,-7468,-12112,-292,465,-275
0,7416,-7212,-12432,1065,-4708,-3294
0,8292,-8008,-12364,-445,-1933,-1547
0,8688,-6916,-12924,-702,995,-373
0,9020,-7304,-13000,318,1551,45
0,8636,-7464,-13376,-422,-406,361
0,7964,-7384,-12264,548,387,-321
0,7152,-8008,-11676,1524,705,-1470
0,8752,-7568,-13008,522,-1401,-937
0,8276,-7228,-12536,-583,1951,-173
0,8924,-7472,-13588,1905,2783,-260
0,8516,-6572,-11692,-1570,-339,-234
0,8648,-6216,-10880,-7581,2221,2066
0,9112,-7452,-15756,2982,3812,2523
0,8952,-6932,-16124,3508,-1173,-1314
0,7280,-4428,-11628,-1804,4028,71
0,7760,-7096,-12456,5068,2382,-191
0,8536,-6596,-12952,2531,4466,-2115
0,6588,-6860,-11572,-4978,7248,3507
0,8052,-5088,-9992,3992,3252,2929
0,9900,-6916,-11328,702,-4767,-2077
0,8504,-7680,-12184,-210,-1967,-1087
0,8408,-7436,-12356,452,-1009,-1067
0,8568,-7264,-12964,770,-3942,-1027
0,8052,-7632,-12400,1143,-729,-152
0,7524,-7592,-12532,-286,-451,-49
0,7844,-7376,-13436,-450,97,-718
0,8288,-7244,-13584,-555,-747,12
0,8112,-7648,-13020,34,878,-1362
0,8448,-6924,-11924,587,3058,-619
0,8036,-8364,-12232,792,2904,-1613
0,8768,-7592,-12256,-766,-899,2
0,9392,-7536,-13516,-1410,-1068,430
0,8548,-7036,-13540,-1363,-2077,151
0,8288,-7228,-13104,-1315,-792,213
0,8040,-7148,-12740,-1748,86,222
0,8008,-7116,-12924,-1344,39,73
0,7856,-6636,-13420,-455,157,173
0,8088,-6532,-13416,-635,111,-237
0,7340,-6712,-13168,-714,1104,-82
0,8320,-6356,-13968,-557,262,-47
0,8160,-6188,-13724,-517,-279,-200
0,7816,-6344,-13368,-362,-137,-178
0,8012,-6204,-13428,406,-397,-430
0,8064,-6468,-13544,-36,229,-626
0,7632,-6852,-12192,-273,-1086,-474
0,7648,-6532,-13632,-313,858,155
0,8324,-6060,-13768,-434,400,66
0,8212,-6408,-13720,-233,-23,-77
0,7884,-6284,-13656,-208,65,16
0,7996,-6380,-13304,-908,790,265
0,8176,-6492,-13904,27,993,32
0,7236,-7056,-12768,145,560,-157
0,8028,-6744,-12712,-1384,-1062,-517
0,7472,-6452,-13532,-504,-409,554
0,6684,-5932,-13184,1217,-1303,-1512
0,7556,-5892,-14788,471,274,-296
0,7460,-6468,-13760,1048,115,-957
0,8096,-6320,-13992,475,5035,-1706
0,8148,-6556,-13004,1499,3794,-1154
0,9128,-6396,-12828,915,424,-771
0,9096,-6420,-12672,-408,240,-165
0,9276,-6396,-13340,98,376,-476
0,9248,-7436,-12572,-1358,-322,-36
0,8328,-7236,-11180,996,1191,-936
0,8156,-6172,-12188,2102,-1753,-638
0,9216,-6652,-14048,1325,606,-148
0,8936,-6764,-13324,375,572,117
0,8748,-7048,-12520,-277,-1065,321
0,8604,-7476,-12128,-1330,1101,194
0,8364,-7260,-11756,-1794,3106,44
0,8484,-6668,-11860,1465,959,-696
0,10244,-6644,-14004,611,-4993,309
0,8716,-7408,-13436,71,-1358,-495
0,8336,-7408,-12720,607,-1764,147
0,7884,-7448,-12604,797,-1069,-103
0,7480,-7820,-12480,796,-1249,-656
0,7596,-8040,-12868,451,516,-416
0,7656,-7748,-12356,215,748,-597
0,7976,-7776,-13004,-194,571,-185
0,7808,-8368,-12456,-25,971,-276
0,7132,-7668,-11088,222,1103,-294
0,8116,-8004,-12892,-380,2933,-307
0,8748,-7560,-12952,-255,119,103
0,7336,-8264,-11320,834,1888,-339
0,8144,-7552,-11168,-931,2484,-28
0,9652,-7496,-14372,384,-2217,-849
0,9584,-6992,-12864,-1184,779,-197
0,7484,-7388,-10464,996,-4032,-68
0,8276,-7424,-12332,466,-702,-15
0,7924,-7756,-12900,-595,1018,-596
0,7988,-7420,-12288,-350,-619,318
0,7740,-7848,-13260,-570,1962,739
0,7892,-7444,-12600,-622,1726,202
0,7688,-6820,-11480,145,-2428,-67
0,7892,-7564,-12756,-198,-409,0
0,7696,-7128,-13404,-133,186,-230
0,7956,-7540,-13492,-366,533,-315
0,8420,-7020,-13564,51,845,-353
0,8792,-7444,-12744,119,1203,-566
0,7860,-7808,-13472,1605,2085,-3856
0,9600,-6380,-12880,105,-907,-2626
0,9324,-7296,-11548,-525,1597,-985
0,10376,-7816,-13388,149,-1638,-548
0,9092,-6396,-12372,104,2049,-128
0,9528,-6572,-12084,-82,-2527,349
0,9400,-8004,-12004,40,160,555
0,9280,-7020,-12424,-334,-452,576
0,9240,-6884,-12240,46,437,103
0,9068,-7572,-12060,-491,-68,-168
0,9496,-7392,-11956,-215,1237,-393
0,9452,-7692,-12320,-375,-547,-100
0,9168,-6960,-12088,-175,671,-263
0,9696,-7176,-12664,-341,489,-388
0,9312,-6792,-12004,-212,1346,-243
0,9656,-7216,-11996,-448,319,-106
0,8536,-7348,-11080,417,-1003,477
0,9080,-7096,-11888,-207,640,110
0,9316,-7244,-12100,-420,594,57
0,9044,-7424,-12024,-284,466,137
0,9092,-7104,-12084,-205,198,-19
0,9164,-7144,-11800,-500,257,43
0,9204,-7436,-11560,-125,415,132
0,8996,-7104,-12276,-280,506,153
0,9200,-7284,-12616,-436,97,-16
0,9932,-6820,-12724,-1161,1029,-209
0,9040,-6588,-11248,-1669,-1939,1301
0,9336,-7084,-13100,74,1954,336
0,9068,-6972,-11868,-23,96,6
0,8300,-7412,-11596,430,-608,-1718
0,8688,-6688,-12944,-614,175,-2371
0,8728,-6784,-12896,-1184,-154,-6918
0,7920,-5904,-13728,2377,-5918,-12280
0,15000,-3292,-14176,-709,-2192,3043
0,10332,-2708,-11864,2344,5299,-2812
0,21792,1424,-20148,-11737,22083,8059
0,10812,-4188,-9136,-15205,30769,20446
0,10612,-8636,-5440,469,21535,5406
0,11040,-6436,3776,4859,18523,-656
0,10976,-6372,7568,2913,6402,-1915
0,11768,-5012,9236,3776,6102,-4092
0,15416,-2560,9592,191,13969,-7268
0,13240,-6576,8824,-1254,-4222,1199
0,13788,-6156,8560,735,805,1280
0,12984,-6172,7820,-1114,-273,600
0,13620,-5472,8504,-202,-472,717
0,13488,-6876,7480,-870,-2022,691
0,14736,-6036,5508,-1535,756,1177
0,13648,-6960,8032,-977,-53,1186
0,13620,-7108,6908,-716,323,825
0,13444,-6952,7184,-577,759,244
0,13476,-7012,7480,-254,526,-17
0,13344,-6884,7012,-387,-173,183
0,13476,-7188,7356,-144,150,-187
0,13580,-6728,7092,32,-212,-292
0,13500,-7272,6788,-318,1,84
0,13712,-7680,6632,296,77,-279
0,13800,-5688,9432,-727,2577,-1857
0,13004,-5812,7840,-1033,3002,-4150
0,12820,-3220,9572,44,528,8522
0,11552,-10524,6728,6230,567,8877
0,12420,-8236,8948,-3016,4167,-9146
0,10824,-9336,7120,-9689,7935,-2459
0,11780,-9416,7320,-1475,225,1337
0,10416,-8020,9336,-1138,236,1076
0,11788,-7816,7836,-167,-601,-1151
0,12024,-7796,7636,642,799,1137
0,11856,-7200,7948,-37,800,978
0,11720,-8308,8336,20,-112,-435
0,11652,-8324,8700,-808,308,684
0,11824,-8176,7864,-422,193,-304
0,12000,-8896,7776,-360,-333,-664
0,11364,-6324,9080,1707,2317,-254
0,11860,-8176,7756,324,2198,2094
0,11476,-8596,7804,-80,1212,189
0,11756,-10592,7688,-871,-1642,-1005
0,11648,-9940,8352,1902,1122,-2776
0,11540,-8724,8120,-459,-1437,-893
0,13072,-4908,11704,-518,-425,414
0,12304,-8220,7696,-1751,-2807,3242
0,12160,-8436,7720,-118,-432,1760
0,12112,-8772,7580,-133,-131,714
0,12156,-8928,7276,-235,128,517
0,11864,-9112,7292,-208,-575,694
0,12004,-9048,7256,-75,451,651
0,12252,-9052,7768,-57,-210,844
0,12016,-9136,6924,-259,240,-83
0,11884,-9384,7172,-271,415,-409
0,11608,-9236,7224,-634,203,-1216
0,11844,-8460,7240,-256,178,-135
0,11836,-9164,7168,-115,-462,-1131
0,12088,-8408,7716,277,-672,-2151
0,12288,-7776,7528,8,66,-835
0,12232,-8620,7540,-112,76,-322
0,12428,-8944,7032,-50,126,-743
0,12280,-8664,7476,-276,-15,545
0,12576,-7948,7164,-205,669,225
0,12528,-8276,7656,-645,157,725
0,12436,-8516,7012,-735,545,905
0,11928,-10104,7436,-631,341,327
0,11548,-9612,7644,-2700,2094,2345
0,13572,-11296,8600,1225,-1877,-1292
0,14184,-9524,7524,961,-1672,2347
0,9304,-9544,9392,-130,6861,270
0,6944,-11520,8740,-91,-425,-4036
0,14248,-7812,8532,-247,-2,-6993
0,8780,-7632,8136,-2018,-203,855
0,11348,-6840,8128,989,2016,-5316
0,13040,-2668,9528,3176,-1549,-1150
0,15292,-3728,9684,3799,-2500,7074
0,12232,-7968,8464,-354,-1872,1949
0,11788,-8432,7156,45,-1014,-568
0,12844,-7816,7408,1322,2052,3314
0,12920,-8536,7644,290,244,1547
0,12596,-8448,7776,90,-1883,-181
0,11740,-8756,8364,-4910,2315,-1901
0,14880,-2960,11976,1326,-588,-2434
0,12816,-9968,5584,-2614,-1177,558
0,12356,-7548,6740,-1044,868,1560
0,12940,-8840,7444,252,387,78
0,12624,-8080,6876,-869,-620,45
0,11616,-5288,8056,1809,3663,-2795
0,12768,-7320,6988,-2040,318,-3691
0,12900,-8852,8364,607,2360,-629
0,12908,-9896,9420,-1411,681,2183
0,15064,-3548,5880,2963,595,1318
0,13316,-7972,6876,-2270,-536,2364
0,12468,-8928,5612,1182,1337,-3554
0,11948,-9092,7424,-944,-1345,2301
0,12320,-9132,7220,-248,907,776
0,12200,-9008,8104,-746,-1,-90
0,12524,-8428,8140,-206,287,-266
0,12260,-8520,7244,-531,10,-1077
0,12036,-8812,7796,-25,399,-149
0,12076,-8380,7404,-110,246,710
0,12364,-10196,6256,3064,2307,-6132
0,12356,688,13552,708,2859,-2189
0,12740,-7516,5996,-2232,-742,2969
0,11696,-8308,9680,156,-49,-438
0,12328,-7904,8208,-3102,649,-598
0,14492,-7528,6148,1078,-407,1996
0,11960,-8752,8244,407,415,445
0,12272,-8340,7592,-344,-376,-444
0,12848,-10032,7608,-113,-1233,-223
0,13836,-6076,9688,-695,-1373,-950
0,12972,-10508,6148,-634,-1051,872
0,12628,-8992,7556,-321,-100,-812
0,12896,-10060,6632,1399,609,-2006
0,12892,-7344,7820,760,752,-2420
0,12096,-7292,7904,-352,-524,70
0,13192,-7776,7460,239,-927,-342
0,13156,-6388,6888,-1070,1801,3706
0,12776,-9944,7444,-2321,44,-622
0,13524,-4308,8688,1497,-714,464
0,12544,-7064,7344,425,-623,-634
0,13200,-8008,9164,301,118,-532
0,13332,-8180,8700,-1300,-4869,-1495
0,14504,-8464,6836,-5251,-6575,-2101
0,12316,-5032,1588,-2719,655,-2597
0,14472,-6488,6404,-1948,4203,-6795
0,15776,-4784,9076,-3385,-288,-6714
0,17084,-3148,-192,-405,-5066,-8622
0,15440,-2480,3500,3495,2583,-2445
0,15672,-660,6024,2286,2609,-624
0,14996,-1560,6376,786,925,281
0,14540,-1488,6468,-750,569,380
0,15492,-2628,6960,2225,3276,-967
0,15324,-1280,5556,147,661,84
0,15788,-1464,6204,611,425,1949
0,15436,-2796,7244,-792,-140,2432
0,15632,-1524,6220,-1667,-688,-1220
0,15264,-1516,7364,-1753,630,189
0,15236,-1996,7120,-105,548,-47
0,15208,-2112,6824,-386,320,-73
0,15248,-1900,6688,905,-910,78
0,17512,2384,8556,-316,1050,-1615
0,20136,1848,6652,-2977,-4369,10513
0,16272,-4844,4044,3616,-4964,13486
0,16064,-6236,5076,11493,6565,12037
0,10696,-5996,10472,7532,4781,1767
0,14900,-7400,7200,4629,1328,1009
0,13276,-5420,8588,5485,774,-8143
0,7696,-3368,15084,4519,-12354,-3797
0,13320,-2592,6216,2788,-950,-11091
0,17324,1480,7028,153,2603,-5840
0,14332,1212,7512,739,-2107,1327
0,10992,-1192,12112,-7073,-3540,13022
0,15888,-4868,2624,-15273,-7374,16374
0,10552,-5992,6520,900,5799,8380
0,9804,-7704,-1604,-10998,-22015,3149
0,14948,-5332,-3760,4797,-32768,-22241
0,14764,-7740,-11788,12827,-32768,2516
0,4152,-6236,-7828,5395,-8108,-1540
0,10572,-7000,-16364,568,-6646,618
0,6356,-6428,-15676,-2909,-3206,-3513
0,4684,-6108,-13552,-3115,-1049,1899
0,3324,-4496,-17916,-2127,-660,984
0,6936,-2700,-16348,-2970,17083,-828
0,9912,-6520,-9032,-4929,-5353,-1678
0,10808,-7060,-12396,-4523,-10047,-2997
0,7456,-4212,-14504,-1937,-7587,1362
0,7060,-3316,-15668,-250,-1818,797
0,9356,-3512,-15764,1231,637,-374
0,4496,-4400,-14264,2532,-9836,648
0,7448,-3812,-12820,-5020,2001,7467
0,4268,-6740,-18976,-276,-3679,4081
0,6676,-4036,-18704,1964,10250,5755
0,6852,-3424,-15484,1655,3646,1131
0,6368,-4852,-13984,-393,220,-732
0,6080,-5216,-14124,-323,1907,-1327
0,7804,-5268,-14368,-875,66,808
0,7932,-4488,-15156,157,-354,-2300
0,8636,-2648,-15144,-953,1602,-1401
0,7980,-4692,-14672,-277,-1102,1561
0,7928,-4380,-14508,-1795,2660,3598
0,8232,-4504,-14128,-12,1782,1665
0,8488,-4972,-13420,-1136,2042,2275
0,10012,-3120,-18948,-1451,9451,714
0,8752,-4328,-13804,-747,-919,-3216
0,8268,-5024,-13648,1367,-397,-3200
0,8692,-3748,-12660,-1081,1945,-2408
0,9716,-4176,-15508,-1531,-2053,1468
0,9392,-4952,-13096,-89,-125,1210
0,8164,-4992,-13404,-2809,-2845,-1928
0,6592,-4620,-14760,1180,971,-3510
0,9292,-4148,-12972,2260,6265,-7803
0,11148,-2020,-13344,2994,2046,-13111
0,13160,-3212,-11352,530,-429,-2123
0,13832,-1344,-14024,-7930,27827,989
0,11300,-1440,-6616,2698,32767,-3103
0,11524,-2332,10560,-3087,16496,1
0,14152,-688,8052,-6576,-2396,-6109
0,13680,-1540,6508,-6143,1113,-11147
0,14236,-932,3224,3686,2377,-18594
0,17808,6364,4176,12144,-24958,-5504
0,13920,6052,2364,-781,-4311,1550
0,15088,5808,5140,-944,3073,1475
0,16764,4356,4248,-2964,-5159,17109
0,13992,-2536,1496,-1487,-7615,13090
0,15028,-3292,3372,5219,-7849,4057
0,16192,-2212,-5572,6537,-4192,1100
0,18908,-2112,-4068,731,-11734,8483
0,15612,-2292,-8908,211,-14023,6070
0,10352,-4232,-8524,-3833,-7137,4683
0,13032,-5104,-10324,-3416,-5834,6636
0,11516,-5164,-10512,-1823,2373,5540
0,10608,-6328,-10324,-1859,5110,4682
0,10860,-6468,-10568,-1823,-2150,1108
0,11192,-7208,-10848,-429,-2440,-896
0,12820,-5832,-11764,1069,-6004,-2309
0,11424,-6464,-11052,3727,-624,-2292
0,10552,-6084,-11492,1762,1251,-1415
0,12572,-6996,-12840,564,1009,361
0,10420,-6024,-9888,2448,297,-449
0,9640,-6404,-10768,-413,3636,-327
0,11652,-5708,-12356,-6483,1673,3710
0,10488,-6300,-12280,-5140,5536,6382
0,12136,-7276,-13676,1253,4631,3656
0,11424,-6552,-11372,2712,38,-1047
0,11344,-6784,-12064,1555,-2038,-1141
0,10756,-7448,-10636,1397,398,-254
0,14544,-9200,-12464,326,-426,-1880
0,8392,-8980,-4596,3014,-4746,698
0,10360,-8380,-8940,918,461,323
0,11044,-8312,-9708,425,-18,-704
0,11448,-8104,-10152,888,-952,-636
0,10748,-8740,-7568,1386,2274,1301
0,11176,-8412,-9736,-164,3505,-523
0,12152,-9220,-8584,918,-520,-944
0,11560,-8464,-8688,1024,845,-439
0,11564,-8308,-8800,220,643,-34
0,11932,-8996,-8012,633,2902,180
0,11856,-9052,-7456,-701,-1472,-56
0,11084,-8760,-8816,-90,-226,-353
0,12076,-8928,-8064,-35,-225,-234
0,12380,-8580,-8444,-548,-22,307
0,11672,-8324,-8868,-39,-165,-281
0,11628,-8636,-8844,344,-1772,-429
0,11780,-8564,-8588,-112,-1776,-420
0,11552,-8940,-8764,-323,104,-406
0,12208,-8864,-8224,-57,2223,7
0,11816,-8596,-8756,-318,-1684,-494
0,11296,-9004,-8440,198,-492,39
0,11760,-8696,-8464,93,-7,223
0,11604,-8736,-8740,-102,-206,-38
0,11568,-8880,-8872,80,-91,-365
0,11280,-8676,-8712,-348,-90,156
0,11136,-8508,-9192,-316,366,3
0,11432,-8840,-8616,21,377,-92
0,11532,-8668,-9060,-324,245,167
0,11540,-8788,-8816,36,500,34
0,11436,-8968,-8616,-38,1033,23
0,11064,-8548,-8356,-180,233,-89
0,11476,-8696,-8724,-745,-1220,-162
0,11120,-8960,-8916,-1140,-1073,-128
0,10912,-8916,-9476,-1171,-927,-67
0,10564,-8564,-9668,-1481,-1131,171
0,10620,-8496,-10472,-751,-782,156
0,10520,-8408,-9868,-1486,-2,-93
0,10728,-7864,-10868,-3839,660,16
0,9864,-8068,-10784,-2906,-1016,340
0,9464,-7800,-9584,477,-4561,-1831
0,10096,-7888,-12376,239,-1296,-647
0,7960,-6720,-10720,272,3817,-127
0,10608,-7636,-11196,1953,1128,344
0,10612,-5956,-13440,175,-465,-744
0,9564,-7656,-11140,-1649,1809,-297
0,9660,-7460,-11568,-4382,1861,1232
0,9260,-7376,-10464,1193,2335,442
0,9800,-7744,-11400,-274,-489,-21
0,9252,-7952,-11592,355,-1511,40
0,9664,-7972,-11676,-99,369,92
0,9568,-7864,-11852,936,1549,995
0,8792,-7864,-11204,-36,-96,964
0,8636,-8080,-11180,-459,882,252
0,9408,-8404,-11140,-687,741,275
0,9388,-8036,-11520,-783,830,819
0,9552,-7992,-11744,-710,767,640
0,9372,-8268,-6592,-1086,-615,435
0,9516,-7788,-12208,-1438,-1598,-400
0,9608,-8272,-11712,-843,141,-309
0,8960,-8360,-11268,-90,1094,466
0,9012,-7944,-11404,-269,1375,123
0,9228,-7560,-11540,-1024,237,-366
0,10004,-7672,-12524,-859,-89,-695
0,9560,-7888,-11508,519,3,79
0,9180,-7320,-11596,-72,897,257
0,9812,-8140,-11952,8,164,240
0,9344,-7384,-11696,184,471,-95
0,9560,-8024,-11672,-227,63,-387
0,9636,-7892,-11108,287,2005,234
0,9540,-7844,-11340,-1074,-564,234
0,9324,-8168,-11848,-533,228,250
0,9184,-7276,-11832,-806,-60,-3
0,9772,-7916,-12484,-205,-111,-687
0,9456,-7972,-11592,617,851,359
0,8980,-7444,-11116,-492,286,-598
0,9868,-8108,-11776,-432,-179,-482
0,9224,-7368,-11696,105,173,130
0,9296,-7792,-11744,-360,-403,-300
0,9564,-7588,-11648,277,766,226
0,9072,-7560,-11244,-125,913,-306
0,9668,-8096,-11824,-717,-850,-242
0,9132,-7524,-11404,157,1182,824
0,8916,-7608,-11508,-565,757,-582
0,10264,-8104,-11996,-421,-43,-343
0,9572,-7316,-11264,-410,740,235
0,9776,-7412,-12024,-1578,-942,-461
0,9540,-7388,-12272,-407,625,1027
0,8920,-7612,-12124,-217,785,421
0,9200,-7896,-12168,209,-207,238
0,8680,-7764,-11284,583,738,239
0,9796,-7292,-11808,25,-1244,-544
0,9220,-8088,-11608,473,1399,461
0,9276,-7720,-11192,-1118,-695,529
0,9640,-7376,-12852,-1248,-1744,-568
0,9016,-7980,-12052,129,-357,234
0,9300,-8260,-10924,1042,522,-137
0,8976,-8056,-11224,84,-1110,-373
0,8620,-9356,-11824,813,-2225,-1769
0,10180,-8012,-12588,3784,2113,-1251
0,9220,-7464,-10420,-3029,-1731,614
0,8828,-7892,-11448,168,1483,-74
0,9988,-8276,-13376,863,-4788,751
0,7068,-6568,-8996,858,6958,12
0,9632,-8076,-11128,70,796,-130
0,9836,-8460,-10764,-417,-653,-79
0,8532,-8068,-10544,-275,-635,403
0,8968,-8824,-11656,-376,773,-299
0,9524,-8440,-11308,-455,336,-519
0,9316,-8568,-11428,-65,-382,-170
0,8984,-8384,-11660,-77,43,218
0,9664,-8260,-11552,-1096,2888,-427
0,9736,-8472,-11424,-1880,787,69
0,10428,-8536,-11936,-589,380,-427
0,8860,-8244,-10068,738,-101,-148
0,9472,-8952,-10884,-885,584,111
0,8920,-8388,-10620,24,-896,-541
0,9292,-8500,-11024,-290,-1258,-390
0,10076,-8544,-12364,-1405,1737,512
0,10380,-7060,-12300,-206,-3901,-739
0,10040,-8796,-11780,836,986,-196
0,8252,-8160,-10164,1693,2064,-128
0,9620,-8668,-10820,203,2119,-175
0,9380,-8820,-10184,52,-607,-473
0,9656,-9312,-10480,900,-1340,-1883
0,10116,-10232,-10268,3928,-8225,-9197
0,9016,-5948,-13312,11164,-16965,-14281
0,7812,-6956,-9172,2114,-9284,-6316
0,9224,-6344,-10928,-7936,13358,-739
0,10208,-7164,-10308,-4237,9951,-9187
0,19756,-4656,-15648,-227,666,2465
0,18024,-2588,-7716,971,-92,-8122
0,12336,-876,-1288,-11418,32767,-3090
0,12116,-2196,7232,-6518,13287,238
0,13880,-3376,1552,-6627,25022,-13099
0,11448,116,12256,-133,265,-15644
0,15956,3120,8776,1979,-1983,-11931
0,11836,5124,8904,3608,-14256,-964
0,21612,8448,-928,554,-13760,4247
0,14784,6520,4968,-1873,3055,1158
0,16768,4300,4276,-11487,6231,3603
0,14328,3032,8372,-15606,15482,11215
0,11948,-3604,13700,-11006,7991,18105
0,4340,-9844,10276,-17761,6433,20801
0,3640,-11508,9008,-11239,3137,221
0,15012,-6488,3748,5264,1330,-7156
0,12364,-9764,7588,260,3010,-13181
0,12260,-11680,4996,-2819,5639,5639
0,8988,-8428,9080,-2611,-1859,6313
0,10384,-11668,9596,-4185,97,9609
0,8984,-11272,8388,-1637,3184,2437
0,8548,-12736,8600,-2489,1053,1676
0,8044,-11644,7760,-571,156,1068
0,7992,-12364,8604,-44,715,239
0,8216,-12252,8008,-835,-345,-133
0,7796,-12020,8088,-296,124,229
0,8232,-12580,7712,-528,13,244
0,7996,-12224,7808,-285,-436,244
0,8264,-12584,7676,-91,-57,-412
0,7924,-12212,7892,-395,197,107
0,8284,-12456,7548,-206,246,-582
0,7880,-12452,7772,-175,-58,-201
0,8336,-12432,7420,-254,202,-499
0,8072,-12228,7820,-347,105,80
0,8556,-12536,7308,-373,102,-143
0,8620,-12496,7908,270,-147,-1287
0,13744,-15260,8788,4759,-3062,-10394
0,11644,-96,8768,-7274,6523,-12075
0,11620,-11012,2048,-10823,-13768,6130
0,6856,-9660,4320,-18869,-27385,-1256
0,9520,-7752,-6224,-11675,-13834,-3406
0,14352,-3792,-11224,-7265,-7745,604
0,11248,-7284,-10876,-2611,1546,2604
0,11032,-7564,-10668,-1736,1585,1014
0,10564,-8648,-10564,-770,1111,-465
0,10484,-8788,-9812,-83,1696,1259
0,9924,-9032,-9060,-23,1318,-130
0,11452,-8420,-9468,85,-291,-592
0,10148,-9472,-9268,-535,252,-78
0,10756,-8380,-9116,-842,832,230
0,11148,-9096,-9672,-430,355,-744
0,11436,-8736,-9288,-456,150,751
0,10396,-8728,-9088,-359,-144,-535
0,11008,-7888,-9004,-348,620,633
0,11008,-9000,-9596,-532,109,-1007
0,11240,-8228,-9932,-382,824,630
0,10988,-8988,-9276,114,190,-456
0,11188,-8060,-9332,-469,15,980
0,10940,-9032,-9180,304,-696,-661
0,10828,-8812,-8956,-289,281,1018
0,11008,-9800,-9172,-278,250,309
0,10996,-9004,-8768,-935,1105,1334
0,12420,-8808,-9208,-1332,286,1140
0,10072,-9192,-9280,-2192,1324,2626
0,10032,-9668,-8908,-4197,-1020,3039
0,7188,-7880,-12832,-3440,-729,2075
0,9544,-8140,-10704,-1217,-2199,-3406
0,9164,-8844,-12156,-281,2314,279
0,9804,-8040,-11324,1,967,27
0,9152,-8756,-10580,-117,770,-315
0,10024,-7888,-11320,-77,161,-248
0,8880,-8980,-10960,-1,343,-511
0,10228,-8220,-11196,68,427,-91
0,9488,-8864,-11060,-431,655,-468
0,10168,-7556,-11404,-230,-478,-174
0,9404,-8952,-10896,82,-53,-662
0,10480,-7616,-11928,270,-1414,-528
0,11928,-8760,-15264,5228,-3095,682
0,6476,-10800,-5368,6490,899,5655
0,2176,-8584,-1568,-3367,5888,-3832
0,15976,-8220,-18588,-5594,-7337,-13547
0,9988,-8496,-11108,2352,5477,9458
0,5816,-7272,-7920,-4411,816,-2979
0,11380,-8240,-14220,-1051,-161,-122
0,8420,-7984,-11248,-154,16,1106
0,9696,-7876,-11288,146,1698,-903
0,10008,-7620,-11128,-740,1114,796
0,9976,-7620,-11804,-102,-160,-888
0,9328,-8180,-11240,283,1457,445
0,10384,-7364,-11368,-371,-187,-187
0,8872,-8000,-10792,-1032,1106,105
0,11068,-6916,-11036,-2943,1612,1778
0,9612,-6480,-11060,-4221,4156,3229
0,9604,-8056,-14172,-1001,-913,436
0,9464,-5724,-11376,1551,-1203,-3609
0,10120,-7412,-11820,1362,941,3004
0,10044,-8640,-14336,3356,-1630,446
0,8488,-10204,-9096,6792,220,7196
0,240,-6972,-672,-8651,5751,-10873
0,20592,-6392,-22584,5641,2177,7157
0,2836,-11668,-3356,-1409,2800,-1835
0,12556,-7656,-13256,-1068,2594,1495
0,8236,-10392,-9864,-1061,-506,-427
0,8900,-8348,-10520,-857,749,1116
0,9096,-9540,-9852,-1392,923,186
0,9936,-8224,-10684,-2061,1279,651
0,9716,-8840,-11616,-3283,-2053,-1879
0,10508,-7552,-15772,379,-630,-5995
0,21420,-8404,-12160,3121,6426,6202
0,-908,-9152,-5308,3701,-184,-4095
0,8248,-11096,-3376,1238,13881,-7907
0,25120,-9644,-9720,3400,9018,10289
0,1824,-7132,-7420,-92,-5734,-367
0,18612,-6984,-6472,-173,-5154,-14563
0,14500,-7948,-8264,-631,-1424,12566
0,2652,-5704,-7448,508,5272,-6723
0,25728,-8156,-13628,-980,-5010,-6777
0,10272,-7564,-6432,264,2332,13892
0,1432,-3960,-6252,656,2513,-9359
0,24824,-5672,-12204,772,265,-7246
0,15080,-12496,-6244,129,2111,11700
0,1948,-5804,-8876,3524,-5497,-21510
0,26300,4116,-10396,-565,8636,4854
0,8484,-13816,-7040,-3380,-14137,9090
0,-1172,-1948,-744,3354,1990,-23763
0,32767,-5372,1556,-13697,-6794,32767
0,-5504,-3132,-15548,-1407,-15637,-17049
0,15272,6384,-7348,3739,32767,-2902
0,18512,-26488,-14104,-2466,-22255,17122
0,-18016,-1060,6332,-6414,-15895,-32768
0,32767,-428,-13392,2448,-5645,21832
0,-5752,-10444,-180,-4065,-3379,3986
0,26148,2732,-15284,-923,13095,-1379
0,4968,-7460,-13248,5540,-1059,3228
0,7708,-7180,-3804,13016,-5589,-9360
0,14016,-11236,-9956,9372,17879,5963
0,11828,-7824,-912,7895,6017,1077
0,12984,-10964,-2764,5833,10283,2312
0,14248,-8600,-196,4820,11542,2632
0,13880,-10132,1120,2707,5842,1518
0,17048,-10120,-200,1977,8174,1963
0,13944,-10332,3464,1667,8199,2742
0,9372,-9892,6552,1429,-267,352
0,12116,-9772,6652,995,10,-1451
0,12364,-10984,6892,6,2284,-717
0,11768,-9736,7148,1206,1193,-1361
0,12260,-9040,8096,1588,5759,-2565
0,10184,-8168,9460,2085,3657,-1351
0,10572,-8940,9224,1027,4619,-1395
0,10664,-8240,10096,1628,2772,-1052
0,9740,-7636,10972,-210,5044,-651
0,8892,-8248,10556,1005,-1245,1324
0,9060,-7592,10912,785,873,285
0,8928,-7212,10908,828,-1349,-99
0,10676,-7316,11044,3005,-4563,357
0,12372,-7500,11012,-699,-8924,3010
0,10732,-8940,10076,1046,1061,3132
0,11588,-7208,9976,-59,638,3312
0,10336,-9056,8216,-1653,-1959,3694
0,11528,-10380,6908,-354,-4768,2821
0,11476,-9856,7128,707,-3250,3883
0,10488,-11272,7280,333,-38,197
0,11764,-10788,7232,553,-242,196
0,11012,-9644,8452,-103,-290,149
0,10324,-10804,7144,106,-999,1026
0,12036,-10112,7112,5832,206,2929
0,9608,-9580,9092,7546,-479,1880
0,9484,-7760,11096,4201,-1196,-1147
0,11296,-7644,10400,1978,-274,-2562
0,11560,-6896,9748,-128,-2237,111
0,11340,-7348,9756,-1702,344,-669
0,11960,-8504,9364,-1315,2776,-995
0,12072,-7120,8652,-2006,-764,211
0,12092,-6872,8796,-23,1670,-981
0,12020,-7384,9292,1153,1281,-351
0,11544,-7796,9256,-699,-1570,1263
0,11536,-8140,9424,1538,-509,52
0,11600,-6460,10516,106,-718,-2200
0,12940,-5252,9400,-456,-69,1244
0,11772,-7804,8992,-4183,-878,4119
0,12156,-9360,9420,-485,659,-377
0,11708,-8076,8140,-547,-182,-129
0,12436,-8908,8124,1749,856,-1783
0,11328,-9376,9604,-1349,-1265,312
0,12616,-7928,8960,834,-2540,408
0,12644,-8620,9184,-3227,-268,-613
0,11064,-7508,6536,-3791,-1617,-8377
0,12640,-5600,6096,421,280,-9655
0,14992,-3376,5260,1914,-768,-5604
0,15892,-3384,2288,6060,420,4784
0,13116,-5664,8828,6505,-973,6909
0,14220,-5728,9224,3906,603,5003
0,13872,-6296,8700,628,-1237,2987
0,13056,-6328,7296,-2227,-1737,1414
0,13432,-6644,6936,-1147,4754,1201
0,11744,-8224,9312,1014,4520,-144
0,12272,-5788,9192,-4315,1438,-5888
0,12264,-5140,9568,-1153,3122,7312
0,11076,-9908,9160,1173,223,4019
0,11656,-7956,9036,612,2990,-5439
0,9580,-9608,8440,-8447,7349,-3595
0,12000,-8964,8004,1108,-436,2607
0,11764,-10208,9552,-493,-1426,2455
0,10608,-8960,8904,-163,288,85
0,10996,-9212,7452,-245,45,514
0,10380,-9228,9236,-177,-185,-154
0,11348,-9800,7884,-1233,832,587
0,10392,-9748,8732,-1703,468,1462
0,10436,-9472,8156,-73,683,588
0,9708,-9804,7108,-202,469,2011
0,10552,-9528,7928,887,-1528,-4244
0,10828,-364,14080,1066,-102,-4092
0,12044,-9832,7352,857,-622,-3167
0,11824,-8676,8440,-2660,501,2893
0,11244,-9608,8424,-764,337,1447
0,11420,-9476,7968,-631,835,941
0,10432,-9920,8476,-168,10,401
0,10628,-9844,8144,-466,419,-175
0,10532,-10668,8332,417,380,-108
0,10688,-8904,8260,1419,-1297,-4047
0,10688,-9308,8336,-674,499,658
0,11212,-9228,8208,-112,-67,88
0,11292,-9080,7612,184,-1028,-2043
0,11584,-9336,8272,158,109,-151
0,11412,-8580,8036,-880,1032,1089
0,11708,-8240,8132,274,364,-375
0,11784,-9900,7588,-1507,1911,1580
0,10680,-9792,8704,-966,173,1341
0,10716,-9808,8392,-989,922,1385
0,10300,-10516,8468,-183,325,638
0,10160,-10400,8152,-271,617,-19
0,10044,-8636,8104,-496,968,976
0,10516,-9108,7476,-268,353,-1343
0,10432,-9308,8912,-874,-719,-2023
0,10728,-8048,7332,1364,871,-4110
0,11048,-10196,9076,2389,-2884,2044
0,10404,-8028,9024,1830,-781,1450
0,11336,-9020,9472,-2751,174,-1967
0,11720,-9380,7924,64,390,-808
0,11712,-9224,7932,-787,368,-1076
0,10908,-8644,9344,257,326,77
0,11848,-8728,7760,-13,106,-868
0,11240,-9448,8512,37,-569,-292
0,11564,-9136,7972,719,414,-21
0,11168,-8880,8764,-19,-382,306
0,11336,-7512,8492,456,1389,2518
0,11440,-10236,7716,-430,-2384,3005
0,11076,-8536,8732,248,-270,212
0,11752,-9280,6796,-1051,-989,-73
0,11648,-8640,8444,607,551,-186
0,11564,-8560,7680,-223,-349,-1614
0,12400,-7324,7820,2507,-775,-7747
0,11872,-7068,7744,-1647,1538,1200
0,12168,-8660,8360,889,-2033,-711
0,12828,-7696,7172,1193,830,-853
0,12244,-7320,9684,1691,990,-624
0,12228,-5844,8032,-1040,773,-679
0,12376,-6700,8948,-720,-122,-7
0,12456,-6552,8420,-266,308,109
0,12760,-6172,8544,-675,-219,211
0,14084,-7272,11684,-431,-3751,-1924
0,14756,-6392,7880,-3065,-12501,-6445
0,12244,-4824,5036,-4832,11351,-5516
0,12816,-5128,4660,-3658,3626,-3265
0,15260,-5956,7360,-2415,-1652,-6259
0,15404,-4196,3708,-2392,-85,2168
0,11432,-5300,8404,1037,-12791,1280
0,17328,-4292,6688,-1092,4967,696
0,14496,-6744,6640,-157,-1297,81
0,14736,-4944,5912,-645,-169,1592
0,14540,-5660,5828,-1152,904,1732
0,14380,-5572,6896,-681,1140,33
0,14352,-6340,6752,405,-398,-699
0,14228,-6464,6272,-1326,1978,1203
0,13580,-6892,7412,180,262,44
0,13968,-7372,6700,-137,-444,28
0,13984,-6972,6364,36,514,-274
0,14064,-7200,6496,-1142,198,840
0,13788,-5884,6952,-334,-761,-276
0,14228,-7028,5096,-214,-59,-187
0,13840,-5660,7076,3,-46,-189
0,13756,-6756,6564,58,680,160
0,14048,-6864,6448,-656,566,-102
0,13928,-6680,6436,-1256,-628,710
0,13728,-7464,6696,-618,-320,1
0,14012,-6876,6092,-12,-402,131
0,13660,-7844,5860,-433,-548,224
0,14056,-7468,5820,313,785,-654
0,13972,-7356,6396,-552,723,-358
0,13852,-7364,6424,-506,491,-35
0,13940,-7592,5892,-880,600,99
0,13328,-8200,7324,708,369,361
0,13776,-8208,5436,-986,1152,-879
0,13388,-7076,7284,-828,870,-442
0,13584,-7484,6500,-449,398,701
0,13556,-7664,6524,-822,750,52
0,13408,-7396,6792,166,97,-575
0,13604,-7024,6612,-307,728,-392
0,13348,-7456,7284,-744,355,155
0,13512,-7580,6700,-515,445,153
0,13352,-7544,6704,70,-72,-126
0,13352,-7424,7104,108,-476,35
0,13516,-7764,6516,755,-188,-1831
0,15628,-7784,7764,4089,-5451,-9468
0,16164,-5512,4224,4567,-2337,-10006
0,14984,-344,2896,1476,87,-5885
0,15248,296,3428,207,3465,-3960
0,18360,1380,7768,-1033,-1353,1265
0,16212,-248,5292,-1304,1933,1826
0,15004,-1368,7260,-1361,-147,1135
0,15540,-1372,5604,-447,523,-594
0,16280,-992,6708,-512,1083,500
0,15660,-1484,6296,-646,453,448
0,15092,-1572,6892,-62,296,-409
0,15488,-1192,6420,-416,461,-21
0,15308,-1516,6616,-431,80,-40
0,15440,-1460,6492,-3,-27,-54
0,15556,-1240,6376,-259,195,-63
0,15452,-1260,6288,-150,50,-220
0,15200,-1280,6404,-719,389,424
0,15368,-1856,6668,146,-237,-587
0,15764,-1248,5852,-151,357,-198
0,15392,-1720,6520,373,-917,-758
0,15576,-1288,5916,-878,591,-50
0,15568,-1856,6180,-19,-1555,-733
0,15896,-480,4956,-88,-372,-209
0,15468,-1424,6308,-211,-108,871
0,15968,-1344,5052,-161,1362,315
0,16096,-1848,5200,-169,147,-136
0,15868,-1760,5764,-540,974,605
0,15696,-1632,5836,-227,82,-316
0,15796,-1620,5788,-285,737,-160
0,15692,-1804,5888,-162,40,-317
0,15932,-1652,5700,-335,760,-60
0,15788,-1616,5408,-64,-608,-314
0,15736,-1436,5772,-642,885,314
0,15520,-1904,6056,-194,-67,-114
0,15540,-1360,6452,-310,743,-14
0,15636,-1780,5976,244,-341,-83
0,15632,-1556,6152,-122,387,155
0,15728,-1624,5932,-215,128,139
0,15596,-1768,6168,-421,619,407
0,15540,-1792,6072,135,-207,-322
0,15544,-2000,6356,-296,662,129
0,15616,-1736,6024,-49,49,-432
0,15668,-1692,5860,-472,804,94
0,15588,-2080,5740,-243,400,295
0,15428,-1900,6544,-313,169,-380
0,16212,-1096,5872,-299,292,311
0,15752,-1796,6448,256,1006,-1196
0,15540,-2916,7268,-444,-1748,-2041
0,15784,-1020,4244,214,1398,163
0,15440,-2396,7400,-900,1511,5788
0,16000,-2928,5312,883,1302,6190
0,13692,-4896,5508,3909,416,4318
0,13260,-5140,8268,4639,1392,2096
0,13052,-5320,8400,2117,204,2379
0,14204,-5112,8016,-1046,1759,-210
0,14300,-4700,7492,-2494,2206,-563
0,14260,-5876,7304,-2165,6162,421
0,13632,-5948,8424,2083,129,-657
0,13376,-5252,9748,-1049,-328,-796
0,13696,-4056,8648,-1217,1102,429
0,13540,-4752,8700,-928,-112,-678
0,13636,-4164,8656,-529,662,81
0,13852,-4300,9240,58,-77,1870
0,15864,-5408,6356,2024,-9605,7722
0,15128,-7024,6728,6710,-8824,10304
0,10920,-9244,4296,11522,-22102,11482
0,13448,-7196,1260,12825,-8368,2090
0,14500,-6520,4632,1026,5977,2885
0,7560,-7760,9032,1645,23172,-3710
0,10804,-6388,11312,-4511,14960,-10852
0,10524,-4416,12648,-4861,365,-8593
0,14284,-7064,11260,-8928,1370,-9824
0,14160,-8608,9452,-6417,-4074,-1261
0,13484,-8096,7320,3106,-4330,-8103
0,15936,-2192,4084,-2722,-617,-15804
0,14688,-2704,5480,-2213,3248,4657
0,11972,-4284,8760,-1702,-3519,1862
0,15196,-3560,7688,1251,-3603,-4495
0,13788,-4068,7556,-3617,1047,2107
0,15532,-2236,6220,4719,1186,-183
0,14340,-3264,6984,5509,795,-2526
0,14632,-3336,7244,2228,-68,-1654
0,15756,152,7836,41,422,587
0,14116,-128,8964,99,553,-1012
0,15076,-2076,7696,313,130,-37
0,15000,-1272,7840,-1606,42,277
0,14564,-2416,7864,-3451,949,830
0,14484,-2620,7508,976,190,1435
0,14852,-3200,7064,854,478,-1385
0,15304,-840,7912,-290,-227,-2525
0,14488,-1776,8224,2543,1631,-2189
0,14708,-476,8780,-2371,-156,756
0,15424,-1468,7428,505,1162,486
0,15104,-3068,6764,-735,7,765
0,14076,-3080,8408,-1926,-968,-383
0,14580,-2172,7896,448,694,-1058
0,15264,-940,8040,-3029,553,-1243
0,15612,-3004,7364,-4627,-240,3198
0,14432,-3336,8244,584,1056,-215
0,15100,-2384,7820,104,861,-27
0,14508,-3772,7224,1868,-382,381
0,14024,-3568,7908,-1983,2,458
0,13876,-520,9284,733,-63,-2195
0,14896,-3776,6440,-2012,-516,747
0,14420,-492,9420,-1520,-346,390
0,15108,-3208,6964,90,123,-66
0,14792,-2476,7532,683,1273,-1877
0,14764,-2952,7716,-340,652,179
0,15084,-2348,7200,519,954,-1191
0,14672,-3248,7660,-653,541,1074
0,13956,-4504,7800,-718,-362,3507
0,13832,-4636,7300,5,151,256
0,15236,-3964,6444,-1891,-585,1009
0,14780,-1156,8820,690,446,-1442
0,15536,-3208,7208,-1066,-55,725
0,13856,-4000,8284,-1516,1509,-621
0,14696,-3344,6828,-847,521,-486
0,15300,-4092,6040,341,789,-406
0,15512,-3436,7016,-62,359,-507
0,14856,-4224,6396,746,29,-769
0,14652,-4976,6804,-1060,-1219,732
0,14516,-3344,8100,-1526,-1021,771
0,14452,-3764,7364,226,985,-936
0,15668,-2456,7172,-541,-163,-1396
0,14700,-4320,6964,440,160,116
0,14080,-4448,6692,-1330,-857,1099
0,15408,-2492,6880,1197,237,-290
0,15148,-3648,6492,1319,769,-95
0,14704,-4432,7092,709,416,-1381
0,14768,-4448,6176,-456,-965,792
0,13696,-1660,9644,477,321,-434
0,16136,-2464,6408,-931,-817,1909
0,14492,-2760,8392,673,1241,-1240
0,14864,-3316,7384,-1370,-249,473
0,14980,-3548,6436,1643,1108,-2906
0,15160,-3672,6860,-167,438,-342
0,14880,-3840,6892,790,374,-1574
0,15000,-2984,7244,-943,-93,1164
0,14780,-3204,6716,-2280,-1137,1686
0,14208,-5120,6588,-649,464,1520
0,15592,-2820,7552,-286,-872,-91
0,14116,-4800,6468,-1006,-291,741
0,14484,1544,10316,-382,515,-1157
0,14832,-3532,6956,-443,419,-742
0,15304,-2408,7336,-660,484,156
0,14592,-4744,7328,-1501,-442,-1188
0,15900,-3036,7184,-128,123,1759
0,14184,-4212,7928,1219,922,-2239
0,15652,-2420,7524,-658,-609,1747
0,14100,-4004,7484,4981,1066,-1264
0,15276,-2372,7148,394,571,-2009
0,14072,-4520,5984,945,418,-614
0,15008,-3380,7016,-312,670,2183
0,14944,-2668,7320,904,26,-2134
0,15060,-2880,7416,-1260,-499,1342
0,13796,-3844,8204,2175,402,-1213
0,14720,-3220,7648,-1734,-662,187
0,15060,-1784,8604,-288,957,-2679
0,14708,-2272,8228,-1374,-235,1719
0,15160,-1492,7892,-25,-209,2850
0,12856,-6668,7792,1258,681,2154
0,19888,2304,7288,-2937,666,1771
0,14216,-4360,7456,-2116,1348,2896
0,14980,-3156,7276,-2401,-148,-930
0,14772,-4920,6596,-28,1060,2087
0,12304,-5976,8752,-1936,1623,1255
0,16788,-4928,6524,-359,-69,1386
0,14200,-3340,8608,-1125,2530,-26
0,13412,-6220,7868,-886,-779,-2275
0,15296,-4232,7392,-286,5,-632
0,14588,-5292,7288,3754,86,-5192
0,15064,-5140,6316,1210,-180,-1345
0,14516,-3728,6448,1934,-615,-2686
0,14984,-3860,6688,-481,-919,57
0,14848,-2060,8016,1774,1760,-887
0,15608,-2328,7396,-2092,-930,5266
0,13452,-5844,7260,-2789,1088,4662
0,15492,-2820,7416,1113,3441,1866
0,13784,-4548,8276,-1014,-1003,-1429
0,14300,-5476,7392,1024,3475,-293
0,14320,-4740,7112,-794,-1420,-2551
0,14264,-6732,5856,-678,888,-1244
0,13948,-3428,7984,-2526,997,-1927
0,14128,-3824,8236,1230,910,-513
0,15380,-4124,5844,-1115,-162,-250
0,14164,-5400,6956,-480,307,-1267
0,15092,-3848,5952,-808,-38,1191
0,14860,-4420,6844,2721,1855,-763
0,14648,-4356,6696,1072,29,-449
0,14552,-5264,6644,2305,374,-3207
0,14292,-284,9028,-922,-882,-567
0,15912,-1380,6976,-1539,194,968
0,15064,-2180,8176,-3585,549,4847
0,14064,-4644,7076,1947,422,-3031
0,14708,-3492,7244,-1121,663,1621
0,14188,-4100,7488,576,299,-2194
0,14248,-4940,6396,258,-309,640
0,13932,-4032,6608,-1412,-1025,688
0,14716,-3252,8028,-2029,-500,252
0,14492,-3236,7688,633,259,-195
0,14856,-4588,6704,-1337,-1083,994
0,16136,-2516,5632,-755,-1316,1067
0,14692,-3896,6932,1259,1579,-791
0,14836,-3312,7504,145,225,-1005
0,14772,-4796,7108,926,968,-1106
0,14132,-3892,5720,-1632,-732,2196
0,14412,-6196,5588,710,-614,-1347
0,14676,-552,8640,811,1183,-757
0,14528,-3804,8184,65,-26,-1982
0,14856,-3604,6844,-140,-115,529
0,13320,-3988,7116,-1504,214,977
0,15136,-4700,6284,-1848,-772,350
0,14828,-4384,6744,1118,1052,-614
0,14528,-3408,7788,-1569,-260,389
0,14168,-5268,7348,516,-682,-664
0,16284,-144,9916,-1778,1425,1932
0,14376,-4452,7760,-295,-1037,-2267
0,14680,-4328,7400,729,1036,91
0,13672,-5928,6600,-137,-775,810
0,14952,-3284,7708,-326,111,-358
0,14904,-3472,7348,-1242,-369,-534
0,14608,-4632,6464,502,936,-52
0,14828,-3944,6908,-1410,-223,437
0,14472,-4920,6984,-90,75,-489
0,14552,-4364,6416,1226,-405,-1814
0,13900,-5116,6780,-258,49,-287
0,14712,-2720,7720,-1064,-414,1732
0,14740,-5140,6600,-524,151,385
0,15160,-2996,7044,-405,-247,-313
0,14524,-4808,7180,100,49,208
0,15188,-3008,6452,-527,255,-268
0,14376,-5312,7024,-65,-428,513
0,15300,-2868,6476,-454,555,-706
0,14996,-3480,7160,-680,-279,675
0,14724,-5756,5668,-530,47,-199
0,15320,-2688,7016,-350,581,89
0,14628,-5156,6064,-92,65,-838
0,14932,-3756,6800,-6,492,-159
0,14964,-4348,6536,806,-113,464
0,15132,-3148,7204,558,530,-802
0,15464,-3892,6132,232,463,971
0,14412,-3416,7240,340,206,-1974
0,15212,-3580,8664,-2162,1421,1756
0,14624,-4128,6656,-1053,-378,-774
0,15028,-3512,7072,32,152,-192
0,15096,-4412,6036,1043,412,-268
0,14128,-1860,8328,2807,453,1796
0,14852,-2932,7600,-651,458,-922
0,14980,-4036,7056,190,201,-764
0,14980,-2976,6488,436,-125,610
0,14664,-3384,7596,55,477,-1642
0,15396,-3140,6788,-1442,564,294
0,14336,-4372,7672,-1822,35,271
0,16228,-3096,6476,-497,699,858
0,14992,-3792,6388,107,1217,-1048
0,15224,-3204,6420,-2584,1191,249
0,14704,-3700,7484,-208,-948,-1822
0,15288,-3888,6396,1113,-10,-49
0,14972,-3408,7412,-964,-621,-518
0,14864,-4696,5720,251,-252,335
0,14900,-3612,7232,1740,910,-1143
0,14596,-4364,6468,1683,-102,-742
0,14968,-3964,5828,924,-614,-2343
0,15168,-2704,6960,1683,1314,-2105
0,15076,-1668,7748,-3616,-1206,245
0,13996,-4896,6996,-2830,1810,1031
0,14216,-3392,7612,-1577,361,890
0,13432,-4884,8056,480,1723,-619
0,14764,-3752,6888,-1954,-1400,-3155
0,13848,-5352,6048,-3160,2207,-1123
0,13944,-2128,8536,-3995,3129,2146
0,14636,-4028,7132,-2659,861,1028
0,15512,-4932,4808,6585,-298,5383
0,13364,-6236,7228,3450,-3037,-3321
0,16068,-2064,8552,-918,622,1405
0,14384,-5364,6528,2201,1026,-664
0,15240,-4336,6500,-1036,-591,2538
0,13512,-4752,7900,-4503,-1083,-3154
0,14708,-4992,7312,763,1553,-31
0,14888,-1284,8752,448,-519,897
0,14188,-5472,6312,-985,2444,819
0,13380,-4064,6752,-3990,1694,175
0,14064,-5488,7248,-1768,2462,-555
0,14332,-3084,8228,1675,1102,744
0,15256,-3756,6624,3057,-14,-2639
0,15604,-3164,6644,1177,784,-565
0,14400,-4092,7468,777,1122,-1732
0,14940,-2412,7736,-3675,93,3135
0,14700,-5192,7308,-1617,603,3566
0,14528,-4604,7740,-1427,-1855,3841
0,13128,-7228,7916,-1715,-3965,3482
0,14748,-5724,5248,-1237,2012,227
0,14780,-7944,4728,1596,-2079,-3781
0,13936,-6232,5484,2764,-41,102
0,13996,-7056,6548,4194,2476,2697
0,13120,-5652,7524,2055,7684,766
0,13616,-7536,9380,-730,3058,1676
0,13788,-4564,8092,388,-1171,2638
0,13560,-5832,8768,2053,1907,3738
0,12780,-7704,8544,2376,696,-2945
0,13400,-6988,7728,-4611,3171,-4571
0,11836,-6320,10280,-1025,280,929
0,11768,-7180,9724,4735,601,3174
0,12712,-4648,8908,-5664,-1169,-559
0,13224,-7216,8128,-2413,777,2705
0,12192,-6064,8532,-594,1419,1528
0,12496,-6568,10008,-682,-193,317
0,12064,-6744,10060,-374,622,672
0,12316,-7952,8720,190,81,1884
0,11556,-7560,9448,-407,342,541
0,11840,-7252,8812,10,756,-916
0,12156,-6152,8624,207,-206,-1612
0,12004,-8136,8456,1333,-82,-1887
0,12596,-7344,8104,-907,75,1070
0,11888,-7128,9220,33,927,755
0,12596,-7112,7520,-194,344,-484
0,11912,-7748,9780,1380,611,-1009
0,12216,-6588,9272,296,545,-8
0,12020,-6812,9904,936,423,-1026
0,12420,-6588,9288,-68,405,98
0,12264,-6240,9176,-590,1366,554
0,12184,-7252,9304,-98,-329,-768
0,12028,-6488,9032,-772,261,528
0,12108,-5516,9488,-198,271,160
0,12260,-6364,9228,-612,18,-2
0,11980,-7108,9580,-647,92,664
0,12096,-6384,9396,-186,-104,-165
0,12052,-6808,9456,-498,-394,641
0,12288,-7000,9080,-293,287,4
0,11964,-7456,9672,-88,325,-133
0,11796,-6924,9368,-347,173,307
0,11936,-7076,9204,-169,329,8
0,11940,-7032,9572,-371,200,340
0,12000,-7260,9480,-290,348,106
0,11812,-7372,9492,-267,-6,119
0,12208,-7056,9464,-205,123,306
0,11880,-7228,9240,-212,307,99
0,11752,-7296,9412,-400,309,236
0,11796,-7276,9156,-240,259,16
0,11788,-7216,9380,-228,226,-12
0,11768,-7300,9428,-286,357,160
0,11756,-7440,9292,-193,221,-14
0,11632,-7420,9328,-304,284,120
0,11864,-7648,9176,-320,267,612
0,11672,-7360,9524,-160,221,-51
0,11620,-7516,9568,-205,167,-166
0,11616,-7588,9520,-169,81,-281
0,11608,-7592,9480,-255,211,-239
0,11664,-7440,9420,-158,235,-189
0,11684,-7464,9488,-188,285,-149
0,11756,-7484,9260,-236,122,-62
0,11672,-7344,9096,-40,490,-161
0,11448,-7452,9668,-958,-390,-1211
0,11772,-7292,9320,-662,412,-300
0,11688,-7452,9596,514,916,-725
0,11688,-7832,10252,5497,-1789,1402
0,11680,-6500,9992,5039,-737,-261
0,11748,-6184,10092,1694,-1566,557
0,12116,-5840,10476,362,-143,-211
0,14604,-6364,12104,-3149,-14481,-2656
0,14964,-6968,3664,-6439,-4789,-2493
0,12776,-5612,6740,-6522,1431,-4730
0,17008,-4456,3660,-7776,1710,-11038
0,14796,-2776,5036,-2284,489,-4125
0,16944,-3032,5924,518,1026,508
0,14976,-4428,6492,1453,2387,2305
0,14708,-2976,7248,100,187,510
0,14460,-4496,7144,233,-13,850
0,14576,-4152,7384,461,235,-1179
0,14752,-2880,7588,-325,-18,-817
0,14968,-3428,7096,144,-26,-542
0,14344,-3140,8244,223,118,-586
0,14880,-3204,7420,226,222,-902
0,15828,-2756,9228,-2222,-2858,-579
0,15052,-5740,5200,408,5779,7056
0,10380,-3656,6936,5606,-884,9156
0,12700,-4024,10776,-17,4253,3188
0,12996,-7348,5116,-6047,3105,8665
0,14660,-6088,7768,3579,-592,-10053
0,13260,-5776,8064,2030,-1959,-5179
0,15244,-4944,6068,-869,1104,232
0,14212,-5364,7528,906,2399,-1665
0,14692,-2716,7228,839,745,-5414
0,14884,-5240,5144,1437,379,-2856
0,14412,-3996,7116,1604,704,-1288
0,14392,-3564,8008,581,236,-1842
0,15044,-2840,7080,550,1529,-752
0,14544,-3056,7984,-88,492,-2484
0,15400,-3120,6056,-95,769,122
0,14332,-3328,6340,725,50,-686
0,14824,-2584,7520,-685,212,1769
0,15188,-2052,7624,2534,1244,261
0,14860,-2312,7908,-1487,-14,-891
0,14716,-1772,8104,-1284,151,-1062
0,14496,-2588,7984,-732,522,115
0,15328,-1836,7384,688,2113,-45
0,14312,-2448,7680,-615,722,-1190
0,14724,-2200,7824,650,1123,-587
0,14516,-3160,7656,-835,107,-1034
0,14600,-2276,8160,-863,1210,-597
0,15564,-2480,7776,-5170,1097,-1029
0,15176,-3480,7092,-1749,531,1211
0,12484,-5712,9584,570,627,-598
0,14980,-3036,6920,-292,659,1479
0,14876,-3168,8444,1200,798,-2822
0,15036,-1600,7580,-810,685,2004
0,14972,-1848,7888,-893,-442,-1901
0,14676,-2736,7644,-1115,601,2450
0,14224,-3200,8536,-1967,-248,32
0,14860,-3132,7248,-3707,1807,4756
0,14148,-4308,7504,-4226,-867,-253
0,14496,-5408,6820,448,647,1272
0,13916,-4444,8312,-71,287,-963
0,14668,-6392,5032,1633,-435,-224
0,15776,-3688,5956,1651,-172,-643
0,14560,-4624,6992,-785,-469,-1400
0,15956,-2548,7160,-2983,83,2308
0,14348,-6356,7816,403,2736,12431
0,19824,-3328,3796,-1066,-4291,11798
0,10960,-8640,10048,2240,4123,4315
0,9792,-9880,6908,2498,-3554,-3675
0,10700,-9956,3460,1226,2268,-1426
0,7860,-8176,8124,11563,2296,8350
0,9268,-7660,11304,13822,-6503,-292
0,11176,-6128,9288,21478,-20875,-11001
0,13848,1488,16076,15881,-5275,-10073
0,19820,2248,3560,4382,-4160,-969
0,16724,4288,6080,-8669,-12965,6198
0,17668,2516,4324,-4749,1609,4829
0,18192,3864,6020,-7332,-27144,18380
0,11132,-5112,-2788,-8191,-22067,14718
0,14504,-6732,-17044,-7602,-11808,-8560
0,16048,-1200,-5248,2004,4810,-1914
0,15220,-6744,-9372,-5703,8944,9210
0,13768,-8696,-5160,-8838,11683,17327
0,11944,-7856,-5324,-1290,8723,8876
0,12804,-10520,-6096,-3748,4263,5014
0,11060,-9536,-2324,-2760,5108,1396
0,10876,-10620,-2236,-1335,3247,-8326
0,14056,-9932,-488,-1612,-2446,-10212
0,14360,-9260,-2888,1525,2608,-2456
0,14048,-6764,-3216,-309,-703,-2656
0,14644,-7304,-1452,-1713,-6054,-7000
0,13696,-5984,-9800,7070,-18631,-9807
0,13412,-956,-9196,3517,-25381,-8447
0,12168,-1824,-15652,2285,-17579,-2651
0,9188,-2228,-14284,-4378,-5571,-998
0,8776,-1684,-13336,1183,3149,812
0,7744,-2204,-16180,-3286,-1411,-1630
0,8184,-104,-13704,-2306,2376,-2275
0,7792,-448,-16008,-3146,-1677,-2335
0,10160,40,-14800,2843,1944,2603
0,7536,-1184,-15252,-1811,4823,3235
0,9512,524,-15200,-969,1528,858
0,9628,-1168,-15916,-500,1787,-745
0,8924,824,-13676,-2153,-465,1486
0,8968,-824,-14020,859,2275,45
0,8984,452,-14272,-5131,-1402,2179
0,9296,-172,-15096,2689,4336,1787
0,10480,-608,-14992,1721,832,1763
0,10988,-756,-13836,2245,-793,4289
0,8496,-2764,-13540,477,2661,5685
0,9688,-2048,-13804,1214,1915,3308
0,10496,-3092,-12684,-356,3553,2929
0,10308,-2980,-12196,-1522,404,3743
0,9312,-4588,-13200,-1870,71,3265
0,10476,-4812,-14496,1547,-7692,-183
0,9460,-3376,-14188,2983,-1912,-3165
0,9588,-3128,-13168,-2617,1420,-290
0,9812,-5632,-14972,-2890,-401,1861
0,9636,-3284,-14652,-1854,345,748
0,10596,-3092,-16536,-713,-2096,-3483
0,9096,-2060,-13440,-1934,-376,-4691
0,10716,-1616,-13280,-4642,-415,-3157
0,9748,-784,-15552,-3557,-1294,-2469
0,11476,-488,-10916,761,-6284,-8417
0,9568,1760,-18044,2594,-7847,-3548
0,9420,1448,-15720,-142,1904,245
0,8620,976,-14248,-3743,1833,1577
0,9100,1584,-15336,-1745,1108,-566
0,9200,2600,-17676,-2171,-2810,-919
0,8372,1984,-14544,614,1397,-1708
0,8876,1768,-13616,-711,75,2
0,8024,1680,-14880,-23,750,-629
0,8020,1448,-13684,1091,756,-1353
0,8860,2004,-14160,-297,1565,765
0,9088,1828,-14552,-328,83,-265
0,8788,1972,-14340,-848,499,-74
0,9648,2280,-14484,-622,1173,1066
0,9192,2484,-15140,-2246,1512,2691
0,8852,1916,-14828,-260,2448,-2586
0,9272,1948,-13516,355,1593,567
0,11156,2900,-13260,-326,-412,-488
0,8980,2404,-14568,-529,-1014,-1441
0,9288,2412,-14280,576,304,144
0,9432,2512,-13912,342,603,-446
0,9272,2336,-13992,243,300,-329
0,9320,2268,-13612,-107,-462,-160
0,9120,2212,-13632,-90,514,-281
0,9084,2384,-13980,-154,317,266
0,9560,2508,-14112,-160,369,42
0,9660,2628,-14252,-95,-76,341
0,9680,2616,-13952,-339,-287,-154
0,9456,2412,-13964,163,742,-245
0,9544,2580,-14384,-119,338,-14
0,9492,2532,-14100,-202,-254,1152
0,9964,2672,-14424,-273,-364,-393
0,8012,1548,-12096,-801,1083,-1836
0,8784,2112,-14000,233,511,-100
0,8684,2036,-14212,-93,359,591
0,11688,3448,-14336,-631,308,-682
0,9280,2348,-13724,-481,-234,921
0,8384,1644,-13576,-800,488,-150
0,9240,2228,-12908,-1474,-1079,2058
0,9404,2576,-15444,1567,1970,-265
0,11520,2824,-14828,2071,1863,-232
0,11300,2100,-13740,1543,4660,4326
0,10960,1816,-13712,5884,2358,-530
0,12772,-1696,-11916,4378,6476,-2695
0,14112,-68,-8400,2234,22019,-2011
0,14920,-1440,-3684,-22,32767,5850
0,15068,-1208,2788,2484,19847,7426
0,12720,-6028,7116,3645,13806,6179
0,12908,-5704,7496,3424,10636,5250
0,11604,-4636,10936,3766,5267,2511
0,11584,-5748,11384,2896,3163,2135
0,11096,-5200,11340,1067,1954,605
0,11264,-4976,11564,1258,1323,-2216
0,10664,-5128,11260,-26,257,-1610
0,11624,-5104,11292,-63,-35,-2968
0,12340,-4900,10976,-1650,736,-4191
0,11636,-2968,12564,-4519,3067,-13803
0,11344,-1004,13956,-4605,2337,-3073
0,10856,-4156,13628,-3740,-2226,-1912
0,11696,-1708,11848,-2003,8580,-1688
0,8788,-3152,13192,-735,9037,-4237
0,7608,-3120,15440,-1260,4247,-1488
0,7544,-3188,14212,-2242,2858,-949
0,7452,-3512,14580,-472,2087,-761
0,6908,-3692,14192,868,2892,-1349
0,6744,-3124,14744,1914,2042,-1423
0,6856,-2288,15532,1050,1053,-322
0,5508,-2576,15136,227,1284,606
0,5500,-448,15664,642,410,-854
0,8324,-3356,16048,-2586,-9072,2793
0,8756,-2188,16732,-966,-3054,1792
0,7240,-4620,13832,-3023,340,1446
0,7188,-3652,13812,-394,-1236,-1748
0,8744,-3612,14108,-2418,1712,-1269
0,8112,-4452,14668,-764,4166,-1250
0,7652,-3432,14368,1052,-3049,-1120
0,9248,-3288,14348,-22,1442,-625
0,7460,-4084,13620,643,-453,-1133
0,7392,-2528,15084,1137,-299,-602
0,8648,-3756,13940,-3513,-1884,4397
0,7716,-5748,15280,-3180,3078,1235
0,6860,-5444,12924,-2108,506,4939
0,6508,-6024,13092,721,1639,6559
0,7572,-5980,12940,-16,-1941,656
0,9532,-5980,12484,827,-1214,-1542
0,9772,-4488,13124,1551,-1810,-2367
0,9668,-4460,13032,-1325,-2233,181
0,8492,-4640,13328,-631,-112,-1436
0,9044,-4640,13232,-940,-994,-1151
0,9484,-5260,12816,-924,114,-884
0,10432,-6064,11920,-908,-215,608
0,9756,-5932,12596,-44,-1219,63
0,10416,-5396,11852,-358,-2052,-478
1,10900,-5284,12088,-289,-817,-145
1,9784,-5248,11984,-415,-34,306
1,10320,-5476,12208,-357,-35,220
1,10316,-5524,11932,-110,352,124
1,10044,-5816,12024,-670,217,188
1,10076,-5972,11944,-615,307,562
1,10116,-4972,12392,-872,-224,2545
1,9316,-7248,12868,816,-3814,5921
1,10104,-7224,10252,1761,889,-1843
1,10292,-5876,11508,-3221,2646,-7225
1,9844,-4948,12780,1327,-1114,1609
1,16188,-6720,10736,-3903,-5046,10292
1,7444,-8340,11256,-5878,-10652,7356
1,7860,-10132,6364,-8804,-12602,3923
1,11572,-10908,2088,-6582,-9221,-3521
1,12036,-11208,2472,-535,-5409,-2004
1,12728,-11264,1516,1894,-9122,-2171
1,13744,-9800,476,3655,-495,-1522
1,12724,-10012,2420,2454,-2061,-1552
1,13000,-10380,2364,1122,692,-2247
1,13828,-9416,1676,1554,889,-2057
1,14292,-9376,1828,1738,-1515,-2178
1,14628,-8776,1780,1125,-1631,-392
1,14408,-8768,2404,154,-3576,1402
1,14084,-9128,372,622,-4473,2066
1,13892,-9924,-204,-35,-5409,2315
1,13604,-9632,-916,-330,-2646,338
1,13416,-10120,-536,-463,-301,554
1,13452,-9760,-928,-586,1014,-445
1,12908,-9084,148,-1360,4093,142
1,13880,-9964,656,-792,5120,-1142
1,14692,-9588,-664,-3228,4970,1100
1,13316,-10496,1360,-2042,4594,-1403
1,14000,-10572,1796,-1004,9828,-945
1,13320,-9720,3608,-845,6837,-285
1,10556,-8956,8208,2436,9948,-1695
1,11804,-9676,7892,-1335,3950,-459
1,12492,-9216,4756,-2209,2372,1488
1,8360,-11036,4968,714,6589,1689
1,9308,-8044,10904,11383,-1454,-2063
1,13112,-5628,12904,-2220,6348,-1079
1,8324,-6896,9048,1081,-6565,-2058
1,9480,-3504,10748,599,3511,-1493
1,12656,-7636,10664,-5240,6201,3239
1,11180,-8284,9528,-625,2743,-2499
1,11632,-7952,9612,-1352,3939,-7553
1,11296,-6260,10604,1286,-3638,2553
1,11796,-6336,9608,292,-520,-468
1,11300,-5388,10700,-22,-240,-951
1,12136,-6268,10984,625,-2648,12665
1,10236,-5128,10616,3471,2602,-5975
1,11660,-388,12912,-2912,4771,-10063
1,11380,-6016,8856,3891,-4612,8610
1,13308,-5140,14700,-4152,-520,-10329
1,14472,-2864,10540,-1500,-2235,7692
1,10040,-9368,9864,609,1214,2935
1,10496,-7520,9916,-3974,1937,-12712
1,11856,-6656,9504,-250,-1881,9996
1,10712,-8948,10404,2054,2476,-6849
1,12996,-3728,9852,-587,218,3046
1,9504,-9312,11964,1409,914,480
1,11596,-6260,8268,-1754,257,-4285
1,10688,-7696,10576,-1217,-592,5718
1,8876,-10108,11140,1701,1098,-1064
1,10924,-8636,7916,708,1664,-8292
1,11228,-6032,10012,-2224,621,8341
1,10680,-5836,10768,2969,1835,-12759
1,12848,-1124,12376,-771,-991,5158
1,9892,-9848,11276,960,104,-929
1,10728,-8880,8356,448,-380,-5470
1,12040,-8168,8968,-1935,1228,8029
1,10596,-8064,8196,-2184,-2106,-3464
1,12280,-8172,9020,-725,2729,-1489
1,10996,-7084,10752,2453,2157,-5100
1,11460,-7600,10316,-826,-1244,4383
1,11684,-6052,10432,3149,-2838,1337
1,11708,-6584,9852,1765,-1180,1347
1,12964,-6192,9708,234,-995,328
1,11840,-6724,10284,-516,585,6
1,12000,-5680,9264,-596,122,-74
1,11752,-6344,10404,-237,287,-869
1,12384,-5700,9556,-448,475,-110
1,11964,-5924,10736,-321,803,-349
1,12868,-5604,9028,179,3566,-3423
1,11136,-5812,11820,-1975,44,-1866
1,11884,-6224,10292,-326,618,-137
1,12552,-6052,10180,-505,-308,100
1,11620,-5372,10716,-124,335,-73
1,11700,-5696,10288,327,-23,24
1,11340,-4124,13700,4477,-6959,4078
1,10364,-6844,8304,-691,4387,-3984
1,14236,-6108,7644,2664,-360,-219
1,10672,-3736,10992,2203,2322,-789
1,13468,-3744,9760,-2482,-2115,169
1,12504,-6060,9744,-1169,-317,428
1,12520,-5844,9976,-794,1403,-246
1,12236,-4900,10212,-58,862,-7
1,12016,-5064,10116,-348,398,-64
1,12092,-5244,10628,-4,33,-108
1,12128,-5220,10584,-101,449,-2
1,12196,-4952,10300,51,311,-252
1,12552,-4976,10892,-153,541,-184
1,12012,-5084,10604,69,89,-558
1,12084,-4692,11000,-274,279,51
1,12080,-5108,10616,-369,134,246
1,12348,-4796,9996,-494,857,-351
1,11944,-5052,10472,-1978,653,-1031
1,12572,-5580,11340,517,-1734,-2911
1,11960,-2396,13240,943,-5502,-7188
1,13124,-4832,7272,-8768,6650,-4705
1,12872,-3468,8400,-2421,2826,-10281
1,15848,-952,7172,1833,-3134,-3514
1,12788,-576,8812,4245,-511,-2002
1,16044,248,8304,403,-1161,-1220
1,13932,-332,9600,-101,689,689
1,14512,-632,8700,-844,342,544
1,14560,-868,8772,-309,-1,2344
1,14276,-1788,8556,-721,210,896
1,14128,-1176,9088,-979,42,931
1,14204,-1632,8960,-584,19,1223
1,14116,-1936,9000,-1059,59,1163
1,14196,-2736,8500,-471,5,256
1,14244,-2112,8608,-233,176,-384
1,14152,-2208,8740,-204,88,-225
1,14296,-2196,8648,-126,256,-191
1,14220,-1936,8816,-192,213,-85
1,14020,-2144,8692,-232,65,889
1,14184,-2372,8668,-32,168,-19
1,14004,-2312,9208,-22,-189,-14
1,14064,-2368,8864,-433,257,-28
1,14204,-2328,8740,-237,284,-147
1,14328,-2148,8624,315,370,-140
1,14208,-2468,8848,-192,184,-121
1,14192,-2212,8584,-132,262,-153
1,14272,-2108,8472,-53,217,-169
1,14128,-2248,8680,-203,189,-118
1,14252,-2140,8688,-22,229,-163
1,14176,-2152,8784,-120,279,-234
1,14280,-2036,8736,-198,196,-156
1,14292,-2368,8584,-369,-36,-40
1,14012,-2368,8888,-589,163,-332
1,14136,-1952,8680,411,442,-291
1,14148,-2096,9040,111,310,-177
1,13988,-1920,9004,-830,15,-131
1,14032,-2792,8484,-89,462,-1200
1,14220,-2352,8524,-551,78,328
1,14176,-2248,8632,-729,271,968
1,13376,-3864,9284,1192,-575,-1339
1,14072,-1024,8228,-3707,1978,5094
1,15208,-2300,8512,-4861,-3390,13686
1,17020,-5704,7480,6150,3525,3043
1,15572,-4240,5784,11478,-12941,31
1,11652,-2916,7756,3414,5035,4315
1,13744,-6920,7632,3274,3045,-474
1,10028,-4924,11084,-1159,10970,146
1,10432,-5448,10668,-4290,15327,-708
1,4972,-5420,16452,-1108,8522,-1744
1,7088,-4324,16476,-1607,2390,-1912
1,4784,-6568,15832,-2276,11873,-3133
1,5088,-5824,15028,-1437,1774,-3171
1,4712,-6156,13264,-7186,2899,4315
1,3164,-8676,14760,-989,2158,-1030
1,2820,-7380,14092,2563,-223,-1928
1,5092,-4976,15572,2201,-281,-2436
1,4640,-6260,14200,-5087,2998,2397
1,3432,-7828,13540,3193,1162,-2007
1,2100,-6612,14192,-861,3003,2459
1,5080,-8824,13372,1692,-4297,-107
1,6636,-4608,17428,7256,-5323,-1088
1,9356,-4340,14404,-1298,-4705,7194
1,10028,-6268,11032,-727,-12431,5195
1,10240,-8100,9360,2184,-10282,-1552
1,11544,-6876,9132,-10,-1467,1562
1,10084,-7140,9992,1360,-6225,3419
1,12912,-6548,8476,1690,-7520,2520
1,13680,-6540,8416,-23,-1285,456
1,12520,-6772,8476,-1341,-467,32
1,13580,-6604,8012,-1745,3160,-1022
1,12208,-7524,7864,-4429,2729,2253
1,12044,-8628,9320,-2637,9138,904
1,10844,-8356,10648,-1346,1733,407
1,12828,-7448,5336,-2373,-2478,370
1,8880,-8520,10972,7806,-10957,-5601
1,14096,-7188,5212,-9739,10221,4737
1,8584,-13128,7816,-23480,15285,9031
1,7556,-16344,4624,18291,-32768,-12258
1,15448,-4168,-3004,32767,-24286,-20101
1,20328,964,-356,-9304,2821,9173
1,6456,-6948,-2088,-32768,32767,18694
1,8004,-18496,6832,15860,-19389,-3771
1,14652,-8208,-4736,32767,-29024,-25614
1,16492,-468,2768,14370,-8057,-15850
1,20188,560,-704,-15743,5553,15252
1,7320,-4840,2608,-32768,32767,26951
1,6224,-8808,4028,9474,-23993,-598
1,13536,-10704,-2116,23863,-25243,-19828
1,16576,-3792,1504,16536,-12096,-16744
1,16612,-912,1284,-5395,53,11196
1,7764,-6744,-1144,-32768,32767,20827
1,6492,-13824,1616,9869,-16229,-1792
1,11768,-11616,-4828,29543,-32768,-24767
1,16300,-3832,-288,21397,-8975,-13320
1,18544,-956,-360,-3036,-1118,5565
1,8800,-4876,-416,-32768,32767,18684
1,5448,-15408,9428,13062,-20973,-1490
1,15476,-7192,-6464,32767,-32768,-24430
1,15544,-1428,3088,13287,-506,-15861
1,20168,1240,584,-8194,-188,12338
1,5340,-10852,5480,-32768,32767,14794
1,6276,-14732,4692,5884,-31883,-2954
1,17724,-8588,-6860,25169,-23789,-14183
1,15008,-4240,3036,10625,-3904,-8770
1,16724,-3192,372,948,-3931,4023
1,13228,-4700,-2044,-32768,32767,21275
1,5468,-16612,4500,1117,-18796,-463
1,13144,-11588,-6024,28128,-32768,-26161
1,15992,-3576,-920,23226,-6533,-19491
1,17400,-1488,812,-219,-4970,9103
1,5508,-7864,-4700,-32768,32767,27674
1,3036,-14720,2408,18559,-32768,-12905
1,15612,-6136,-10160,32767,-20163,-28224
1,16448,588,2424,17707,-5003,-15824
1,21288,1412,-6252,-32768,16797,31604
1,1428,-12544,6424,-32768,32767,25086
1,3128,-13184,-4120,26112,-32768,-19289
1,18700,-6060,-6216,28111,-4316,-21897
1,15548,-2548,3068,4825,-2806,-3798
1,14724,-3560,-7948,-32768,32767,32767
1,3324,-32768,-12188,4661,-622,3781
1,2496,-20036,-1680,29054,-28015,-25906
1,18452,-5824,-5024,24155,-2925,-15126
1,17568,-3176,1280,1758,16,-2419
1,9992,-3928,-7592,-32768,32767,31010
1,15956,-21828,4156,16279,-22488,-6156
1,11052,-10768,-5100,25218,-25822,-28944
1,17080,-5720,-3872,13460,2629,-10558
1,17556,-2852,-2504,-4561,3036,5774
1,7460,-168,-8660,-32768,32767,32767
1,10916,-21728,372,10160,-4893,-6057
1,13392,-5840,-6532,24426,-32768,-28553
1,15264,-2772,-4768,15684,1471,-12351
1,15788,-4904,-3124,-4172,-648,6356
1,13672,-2072,-10232,-32768,24568,32767
1,12008,-22416,-5440,3169,3516,658
1,10300,-7716,-7840,22347,-24735,-32768
1,17220,-4292,-7700,11056,-126,-11717
1,17024,-5812,-4952,3420,-3868,-1595
1,16656,-6740,-7948,-24,5466,-3617
1,13844,-7972,-5508,8497,6432,6990
1,14472,-4996,-2468,-3989,1026,9914
1,9328,-5776,-9948,-32768,32767,32767
1,9296,-16324,-1668,12852,-10465,-7271
1,8020,-10548,-5836,24214,-24251,-28862
1,14284,-5444,-4264,14463,2252,-20652
1,15556,-3680,-132,6126,219,-5726
1,25764,-1364,-14500,-32768,32767,15210
1,6616,-22312,10152,-8881,32767,5834
1,11524,-11000,7348,16255,-26790,-6188
1,16560,-6568,764,16131,-13301,-1187
1,14672,-5464,6592,6382,-6543,-2803
1,29040,3824,-11824,-22083,19697,8233
1,-504,-18276,22244,-26051,18219,10210
1,9648,-11104,-1000,23564,-32768,-8914
1,12932,-4752,6708,24621,-2305,-9997
1,13580,-4080,8004,8401,-8495,-2193
1,26644,992,-6312,-26813,27399,1110
1,-1812,-14016,22964,-32768,32767,-2209
1,8660,-11392,-168,23179,-32768,-6386
1,14080,-4760,5600,18680,-8343,-1726
1,15192,-4772,6744,8460,-6076,-3958
1,13144,-2920,7628,9004,-12612,-4810
1,14220,-5792,1040,-32768,32767,2312
1,3460,-24512,15472,-15876,-17885,15215
1,8504,-11492,-1948,30241,-32768,-20361
1,16332,-2768,932,23795,6181,-17465
1,15652,-368,7228,558,5258,-12453
1,16144,-1136,1480,-32768,32767,2218
1,508,-10748,16648,-30099,-8090,29959
1,3044,-16696,5284,7325,-21086,-5393
1,10512,-7576,5488,15553,-21149,-16880
1,12592,-4880,8448,13905,-5814,-13414
1,15220,-336,7288,2870,-6924,-2821
1,6452,-2628,16180,-32768,32767,27698
1,2624,-9884,4276,7367,-32768,-10030
1,13564,-10148,1712,17549,8186,-14910
1,16656,-4744,4128,11625,-7478,-12941
1,11228,-4892,10792,10130,-4240,-2709
1,32767,2904,-13508,-32768,27229,8321
1,4880,-19120,14076,-18528,-9567,21831
1,6564,-15132,-2980,15896,-32768,-6809
1,15284,-9180,-988,26455,-9935,-3266
1,13212,-8940,3136,6426,-12673,-5373
1,19880,-2136,-5360,-7234,7248,-5799
1,5904,-8524,14284,-32768,32767,9995
1,7244,-13376,1792,13320,-32768,-4328
1,14120,-8272,-4548,32702,-24857,-14915
1,16492,-1800,1884,21424,-11855,-9999
1,24704,304,-12440,-32768,32767,13564
1,7788,-24668,15652,-23119,9559,17348
1,7208,-11984,-4268,28499,-32768,-17875
1,16384,-4988,-1208,25687,-6777,-10955
1,19468,600,660,3773,417,-6115
1,8816,-7516,-4600,-32768,32767,11127
1,296,-16600,7388,14843,-31694,382
1,17764,-7208,-8608,28199,-32768,-17168
1,14316,-3812,3260,15076,-6421,-8134
1,22912,-192,-5116,-25965,17245,5062
1,5496,-15736,4764,-32768,32767,8800
1,4104,-12104,3384,21468,-32768,-8185
1,18552,-6524,-4592,32767,-25121,-5765
1,17476,-668,2172,10448,-4986,-9245
1,22696,436,-4152,-32768,32767,7963
1,3548,-12940,17408,-22976,32024,11499
1,7264,-14080,-312,29335,-32768,-10910
1,17576,-4484,-388,24607,-15121,-6568
1,17660,-2568,1616,5328,-4354,-553
1,16152,-2132,984,1399,-4552,1522
1,12844,-6080,-2620,-32768,32767,10675
1,6008,-15388,11404,215,-24090,4924
1,12632,-10296,-9140,32767,-32768,-18928
1,20672,2404,-252,410,5259,-7249
1,12060,-6320,-396,-32768,32767,14816
1,7328,-13204,5260,11867,-22128,-1611
1,17008,-5960,-6620,31288,-27721,-16947
1,22472,724,-5240,-26098,19214,5867
1,11288,-15680,7796,-22423,19795,14810
1,8008,-12884,-2600,28533,-32768,-14845
1,18868,-3448,-6784,32767,-8518,-16957
1,22208,2452,-1200,-19027,4626,10635
1,7632,-8192,-7444,-32768,32767,23571
1,8844,-17344,6820,11880,-14876,3324
1,6488,-8080,-3472,32767,-32768,-28941
1,16816,-1320,-1028,23780,-1223,-15304
1,18644,740,2068,-4113,-1052,6666
1,7320,-5152,-3768,-32768,32767,23451
1,5932,-14360,6320,2546,-16333,6377
1,11988,-15792,-1588,12240,-25417,-15098
1,12420,-9680,-2924,23221,-22841,-16537
1,17640,-3500,-5148,16533,-8657,-10170
1,9204,-5112,-5148,-32768,32767,21061
1,7276,-17132,2816,4932,-15265,5450
1,13980,-12468,-3872,4075,-16303,-9066
1,12540,-11744,-724,1911,2516,-3083
1,13384,-10288,328,4605,-5420,-7130
1,14488,-10248,-716,-4136,8788,1568
1,13188,-10204,-508,-1451,-1418,-2898
1,15876,-8272,-1248,-1950,2356,-508
1,14604,-9616,-1356,-2388,1123,-170
1,12996,-9292,-300,136,2379,-156
1,14872,-8552,-688,1178,1357,-1973
1,14432,-7864,1764,-1654,3437,1551
1,14248,-8976,332,-47,-1204,695
1,13440,-9084,520,1965,-2881,196
1,12224,-10772,1368,5089,-6922,-1772
1,10424,-9720,-5640,16084,-32768,-6859
1,1212,-11908,-272,-32768,32767,20954
1,6388,-15272,4732,6653,-26716,2869
1,11352,-11800,-4536,26590,-31171,-25712
1,15300,-5240,-1472,23853,-10074,-16207
1,25348,2700,-11248,-32768,30851,20258
1,5560,-23232,10728,-25444,8356,20880
1,8268,-9580,-7984,24088,-32768,-27414
1,14940,-4940,-1996,14972,2070,-12488
1,16032,-4892,60,7467,-7579,-6467
1,19812,424,-12600,-32768,32767,23648
1,6584,-23484,5656,-9225,3713,18259
1,12416,-11964,-3320,6285,-26282,-13461
1,9768,-10052,1296,23105,-10181,-14740
1,20436,-1500,-6164,1706,-7876,-3360
1,9176,-11676,5580,-25656,32767,14620
1,9456,-14448,3404,8611,-22962,-2706
1,13200,-6848,-1596,22230,-17636,-8117
1,17072,-4876,-2252,7810,-7470,-3854
1,14228,-3616,-2660,-32114,32767,4150
1,6992,-13396,9644,4997,-20210,2196
1,21564,-1216,-14052,4345,-12290,-7174
1,7044,-14140,11868,-18294,29015,15111
1,8876,-13960,-4,10745,-32768,-8883
1,16736,-4424,-8448,17859,-13373,-14340
1,13032,-8448,-844,-32075,32767,13821
1,7884,-12448,3664,9597,-25842,-1891
1,27156,1832,-17264,-7344,12522,-6938
1,6344,-7980,16172,-11837,20792,5002
1,11308,-11768,88,9451,-32768,2104
1,12276,-11112,-4356,28349,-32484,-8575
1,21156,-504,-11980,14530,-10051,-5303
1,4992,-6408,-1704,-32768,32767,24164
1,6380,-12644,1988,4541,-32768,5998
1,10520,-14048,-5976,19320,-20431,-21854
1,14772,-4812,-4572,24533,-11294,-24955
1,17588,-1328,240,8224,3651,-10804
1,13820,-3848,-5820,-32768,32767,21330
1,7992,-19864,3976,-7405,-13085,12250
1,8664,-12004,-5136,27940,-32768,-22782
1,18048,-5244,-6972,27648,-1915,-19524
1,16848,-216,1384,6825,-3835,-7541
1,11796,-5084,-10252,-32768,32767,17150
1,2572,-23104,6176,-13261,-31378,14278
1,10856,-12028,-8708,30498,-32768,-28516
1,15448,-6172,-5560,20697,3223,-20255
1,23872,1072,-4196,-17364,11958,9307
1,4704,-9740,6032,-32768,32767,31115
1,3696,-12636,3820,9923,-32768,-2893
1,11564,-11784,-1936,17093,-21221,-18402
1,15396,-6900,-2352,19286,-3135,-24236
1,25312,2860,-3108,-5259,7875,-2292
1,7276,-10576,5244,-32768,32767,18402
1,7176,-14620,2940,1266,-28238,-639
1,15184,-10908,-1544,12442,-10237,-9336
1,13332,-7464,2000,13895,-3254,-12689
1,21836,-1356,-1608,-18048,18686,4236
1,6660,-12108,13016,-11570,6687,7778
1,11532,-10372,924,16453,-31962,-9692
1,17684,-3808,572,6603,247,-9026
1,12556,-7488,5080,-29649,28450,14359
1,7608,-12656,-804,14867,-32768,-5219
1,22564,-2500,-9340,-2727,921,620
1,9524,-13456,5484,-10142,15585,8829
1,15876,-7348,-4568,5442,-20709,-4926
1,12168,-11656,152,-4132,15159,2310
1,13272,-9324,-516,3197,-10274,-2173
1,14352,-9368,-376,-972,5511,-101
1,13560,-9508,-28,166,-1732,-646
1,14248,-9084,52,-669,1496,-834
1,13836,-9244,-332,258,-186,-320
1,14868,-8920,36,-1016,2474,1241
1,12352,-11596,2016,-3367,14906,4942
1,9356,-12304,-3404,27680,-32768,-6832
1,12088,-4624,-12776,-32768,32767,21402
1,4212,-24400,-524,8336,-10277,3206
1,8404,-12652,-5540,24582,-32768,-31102
1,16924,-4276,-5348,22744,4021,-20440
1,19912,384,-1276,-18598,8276,11731
1,4468,-15700,1848,-32768,32767,25526
1,5768,-12728,-4252,12716,-32768,-7236
1,15568,-10028,-4132,13967,-5545,-13930
1,11572,-5788,-1484,12549,-16155,-11424
1,10880,-12564,212,-25670,32767,16505
1,5960,-14820,4032,7784,-23736,972
1,10148,-11032,-5692,26262,-32768,-17283
1,18840,-3600,-9884,2669,-2176,364
1,5496,-14744,5096,-32768,32767,11957
1,8912,-10724,-6292,20749,-32768,-9231
1,13632,-8624,-3032,-2828,14210,-3861
1,16056,-9932,-2368,-4091,2161,2763
1,11796,-11620,-2928,9105,-9013,2644
1,12508,-5528,-2572,-7973,-4880,-12412
1,15352,-7560,-552,-9936,24563,8233
1,8012,-13024,-1296,16838,-26233,-745
1,18184,-3660,-6828,-2634,-711,-13031
1,13900,-10180,976,-18930,25036,14737
1,7724,-13196,-1420,15751,-24142,-2408
1,16172,-2340,-8796,-2884,-8748,-12375
1,13140,-8248,516,-29571,32767,30702
1,7956,-18376,1108,7217,-19445,5293
1,6252,-9720,-4032,32767,-32354,-30290
1,18740,-324,-4468,12595,-7595,-6722
1,9348,-8240,-2536,-32768,32767,24818
1,4196,-15440,2368,6965,-16685,811
1,10752,-9888,-8028,31118,-32768,-26434
1,16916,-3928,-3660,16920,3052,-9935
1,14032,-5136,-10908,-32768,32767,27902
1,3160,-26216,-956,3492,-10084,5590
1,9460,-10820,-4796,27420,-32768,-24378
1,14880,-6016,-5064,22783,-10967,-12807
1,19412,-1784,-7860,-25842,20631,11627
1,4412,-21440,5048,-32768,32767,22631
1,4480,-15524,-584,17778,-32768,-11432
1,16428,-6308,-9732,26514,-21401,-24919
1,14844,-3636,556,10732,435,-10487
1,20912,-1956,-7956,-32768,29271,18913
1,7640,-21860,6800,-32768,24971,19536
1,3504,-15148,-2232,27826,-32768,-19821
1,16916,-4460,-7084,27507,-11968,-23666
1,18148,168,680,3616,3765,-6537
1,10220,-5388,-4440,-32768,32767,22712
1,6400,-17080,2980,12168,-14006,-3169
1,20852,-1732,-3504,17171,-20425,-12615
1,15892,-5768,2880,-6807,10504,4109
1,13816,-8008,2472,-2894,-1065,-60
1,15832,-7084,-84,-3606,820,-265
1,13992,-7916,-168,-2812,2015,-1100
1,14464,-6568,-1028,-1520,-1245,-1609
1,16448,-5656,-1056,-968,-839,-4197
1,17456,-4972,1008,1436,3159,-4125
1,16212,-6392,3284,3394,-1157,-332
1,17196,-1364,-5840,10693,-14875,436
1,1360,-8332,9856,-32768,32767,32767
1,5792,-17672,-1520,-7540,-23120,1596
1,5616,-16060,-4000,16368,-23480,-23276
1,12456,-2852,-4836,32767,-27504,-32768
1,8304,-10952,-9736,-32768,32767,15677
1,1528,-25488,-5632,5497,-32768,-5303
1,13308,-9816,-9792,30197,-32768,-20735
1,12856,-5312,-1368,21854,-1622,-17487
1,18436,-276,-8940,-32768,29038,13451
1,4520,-26872,11136,-29685,32767,32767
1,2748,-15256,516,9619,-32768,-12336
1,12808,-9580,-5668,18190,-19288,-21672
1,12744,-8820,-1992,17897,-15127,-16292
1,19756,-452,-6056,9127,2936,-6199
1,6864,-7088,-4672,-32768,32767,31434
1,3520,-12904,3808,14309,-30527,-2258
1,14256,-8216,-6536,25988,-31626,-28467
1,15360,-2728,-3120,32767,4588,-24663
1,20392,3088,568,726,-3659,6584
1,8496,-5044,-2664,-32768,32767,14823
1,2804,-29776,7152,-31869,2561,30446
1,1716,-21652,356,7842,-32768,-20338
1,16956,-4192,-9424,26565,-18268,-32392
1,12680,-3784,3496,10298,9698,-13255
1,16348,-5048,1744,-8907,7665,7304
1,12756,-7372,5276,-6558,2330,11665
1,11520,-12040,3816,-5458,-1470,8665
1,10296,-11796,3376,9343,-15935,-8239
1,18020,-8564,-3164,-6680,8534,-213
1,8900,-11736,6072,-9912,9857,2723
1,16736,-9408,-5564,11066,-15867,-15395
1,16736,-3300,1080,9768,-4613,-9618
1,16232,-3076,-7188,-32768,32767,25086
1,5508,-26724,6744,-19382,-2548,15308
1,6472,-17444,-4964,20016,-25736,-26053
1,14844,-6712,-900,22017,-5249,-24517
1,22628,620,-11256,-32768,32132,8032
1,7792,-23156,10084,-18834,16512,19973
1,7684,-16160,-1296,23695,-32768,-20261
1,15888,-5160,-5384,28816,-6783,-19403
1,14700,-4556,2192,16547,-3573,-7654
1,22068,32,-1940,-8782,3818,10886
1,13040,-6240,-5348,-32768,32767,16236
1,8120,-13940,8148,-12464,-5079,6509
1,8640,-16992,1728,10661,-29388,-7835
1,14024,-5844,-7080,29072,-23814,-22909
1,20088,536,-2112,-5658,26504,354
1,5708,-12392,8944,-32768,32767,23939
1,1284,-17604,-1060,1792,-32768,-8091
1,13528,-10836,-7508,20139,-24177,-16590
1,11804,-8616,112,14747,-2170,-8597
1,20208,-5456,-14576,-32768,32767,15474
1,2068,-32536,13264,-18452,5347,19830
1,5768,-18092,2048,7243,-32768,-12419
1,10452,-8436,-3292,24696,-25219,-27141
1,17596,-2636,1040,12184,-33,-7484
1,10268,-3688,-7584,-32768,32767,32767
1,2068,-17680,5636,9227,-16066,64
1,10064,-15560,-2140,12512,-32610,-15903
1,14852,-11396,-1692,10296,-8095,-13945
1,12792,-8280,1472,14871,-15223,-10643
1,4420,-12540,-4360,-32768,32767,32767
1,5784,-15184,-2416,-2376,-25084,1796
1,9656,-18072,-4504,14917,-27330,-16659
1,8688,-8288,-1708,24588,-17434,-31011
1,23040,2784,-9740,-4917,13200,10891
1,4072,-22884,7372,-32768,32767,27053
1,3620,-16124,2164,6528,-20882,-3919
1,9744,-10488,-668,21103,-32768,-24370
1,13848,-6216,-3148,17721,-13609,-18632
1,7884,-5756,-5464,-32768,32767,25795
1,6028,-16768,6528,10294,-13634,712
1,7680,-9044,-6564,30182,-32768,-23055
1,18556,-1780,-3728,17703,535,-16720
1,5220,-7704,-3736,-32768,32767,26749
1,4048,-16764,5384,7048,-13828,4226
1,6676,-13900,-3796,20971,-32768,-25979
1,17284,-4356,-6124,22640,-354,-23549
1,12840,-1128,-5004,-32768,32767,25564
1,4104,-22140,1612,7714,-7187,2540
1,10056,-15024,-1120,18523,-24851,-16686
1,17244,-2208,-4632,10369,-4171,-11772
1,10980,-10176,-420,-32768,32767,19418
1,3184,-17088,7860,-664,-5817,11587
1,2632,-16796,-3368,26213,-32768,-27255
1,19876,-3184,-7548,15353,-793,-14338
1,8792,-7036,-6344,-32768,32767,22660
1,2644,-18220,8608,9280,-13130,8841
1,5808,-12832,-4492,32767,-32768,-32314
1,22004,-4284,-8088,-16189,32767,-4502
1,1996,-12960,16276,-32768,32767,15236
1,-2320,-17764,-960,19423,-32768,-13782
1,20720,-1856,-12048,19730,-21861,-18972
1,7244,-10224,4180,-32768,32767,14544
1,3012,-18696,3020,3274,-32768,1154
1,9840,-9048,-9096,32767,-32768,-28767
1,17576,-4116,-12776,-32768,32767,18065
1,3772,-24480,3848,-11304,4202,26178
1,2396,-20292,-4800,19775,-32768,-24499
1,11888,-7336,-3176,27135,-15953,-31252
1,17436,-2316,-3768,-32768,27244,13043
1,8940,-19864,8800,-15786,11961,23605
1,4296,-14816,-5264,32767,-32768,-21804
1,18684,-4136,-6548,9392,-958,-8467
1,7984,-8876,-5512,-32768,32767,25205
1,7588,-16296,2716,308,-2240,9634
1,3120,-19244,-5260,16490,-32768,-21134
1,13660,-7804,-4928,15763,-5066,-20394
1,15992,-3168,-11372,-32768,32767,19494
1,1912,-27244,-1752,-4680,20001,25688
1,772,-18688,3776,3669,-32768,-11785
1,11572,-9920,-5100,22637,-32768,-32768
1,14568,-3856,-604,11937,-2820,-15057
1,-2556,-8396,-2220,-32768,32767,28032
1,8272,-17004,-2816,9642,-23525,-4299
1,7276,-16184,-5560,14988,-22108,-19604
1,10796,-10092,-3236,24462,-17175,-27944
1,17996,-3216,-2680,12470,5574,-10927
1,7796,-7644,-5948,-32768,32767,28018
1,1796,-25744,-2560,6114,-10859,2188
1,9772,-13264,-7016,27504,-32768,-28943
1,15876,-7132,-7916,25917,-10979,-26381
1,17872,-228,2284,10558,4355,-9669
1,12068,-4472,-9320,-32768,32767,31935
1,6824,-26720,6420,-32768,22870,17862
1,2992,-17856,-4344,28360,-32768,-30256
1,17440,-5680,-11876,32767,-5351,-32665
1,19580,3068,3984,-2771,6693,1996
1,11300,-5304,-9916,-32768,32767,32767
1,5160,-32768,-4972,-7701,-2012,15122
1,5404,-13232,-2984,32767,-32768,-31101
1,18816,-2756,-5084,20588,9956,-20462
1,11796,-3072,-10644,-32768,32767,31036
1,1204,-32768,-12256,3823,19004,17108
1,4652,-18492,768,2565,-24911,-7606
1,7384,-8968,-6600,28724,-32768,-32768
1,17060,-3676,-2608,6423,7141,-16045
1,10536,-5848,-5668,-32768,32767,32767
1,4572,-18624,3960,-282,5237,11029
1,4936,-17524,-60,9884,-32768,-14327
1,15648,-6152,-6128,18759,-31933,-25429
1,13540,-5876,-272,14403,-4496,-13356
1,15900,-4468,-8144,-32768,32767,14932
1,-1056,-21164,14948,-15235,28,18365
1,10348,-13696,-5252,18566,-32768,-19201
1,13720,-8884,-3272,14451,-6762,-9584
1,13972,-8388,900,7133,-651,-6339
1,24388,96,-12248,-28335,28031,18441
1,1856,-27384,10560,-32768,32767,25963
1,4676,-19836,-652,480,-32768,-10930
1,8216,-15008,-2756,14947,-20790,-16069
1,12236,-9928,-1660,14651,-13449,-16125
1,22464,8,-9636,-12003,12716,4554
1,-2004,-18200,6244,-29569,32767,25219
1,3376,-16568,4916,6806,-32768,-11586
1,7540,-10940,-1048,27143,-32768,-22621
1,18716,-6224,-6416,27281,-11848,-12565
1,28548,4260,-11528,-29867,22094,19769
1,-4348,-22428,9608,-32768,32767,27854
1,3848,-15952,-1336,4854,-32768,-10969
1,12224,-11940,-3816,19577,-19266,-20383
1,11928,-10108,2928,13832,-11412,-9499
1,22916,-212,-12072,-5199,-4402,10493
1,-8100,-32768,14532,-32768,32767,29221
1,740,-13992,-5000,4455,-32768,-17076
1,12308,-10784,-5224,17616,-25717,-16282
1,12028,-10048,-916,13498,-12098,-11824
1,14824,-7648,-2300,12956,-4130,-11684
1,14020,-6940,-18144,-32768,32767,21275
1,-5540,-32768,-2012,-13013,-23639,7203
1,9512,-16332,-4092,15664,-32768,-21221
1,10656,-8872,-1788,19005,-17258,-19784
1,14396,-7020,-804,7447,-6980,-11993
1,21408,-1328,-15560,-32768,32767,18783
1,4556,-25836,10596,-17185,4860,19989
1,3128,-16344,-2928,28642,-32768,-24648
1,19880,-5672,-10700,21907,-7323,-13158
1,16136,-3660,-40,1266,1625,-10638
1,5860,-6944,-7080,-32768,32767,19048
1,1324,-22012,8268,-6880,-3187,15137
1,4164,-15832,-4152,24043,-32768,-22394
1,17048,-9412,-4984,17016,2111,-16329
1,14840,-4624,2100,8036,-1618,-11172
1,7056,-7460,-5564,-32768,32767,26057
1,-5292,-20268,2284,6791,-32768,-11595
1,13516,-11980,-11676,25188,-32768,-19731
1,12120,-9040,-1976,15657,-1332,-18695
1,16732,-4200,-232,3456,5705,-12944
1,13996,-5316,-12088,-32768,32767,19627
1,-3408,-29008,2276,-6600,-15602,5465
1,8600,-12268,-9948,31255,-32768,-22088
1,13108,-7960,-2528,20161,-2447,-11556
1,16100,-5880,132,6006,81,-13030
1,18304,-3156,-11240,-32768,32767,15511
1,636,-17812,20712,-26536,14237,13730
1,4380,-14836,-7192,22951,-32768,-13852
1,16056,-8844,-7744,26500,-11973,-12196
1,18512,-4224,-3552,-1950,6730,-13981
1,5792,-13264,-3944,-32768,32767,10193
1,1624,-15360,5196,8064,-32768,860
1,14816,-11960,-9340,31904,-32768,-10059
1,11944,-7920,-1660,21535,-17277,-13564
1,23600,-3204,-13968,-32768,32767,11323
1,2052,-18144,12888,-27508,23685,14767
1,8280,-15664,-4604,25020,-32768,-13217
1,13380,-6684,-2292,18881,-879,-20255
1,15520,-6172,-4676,-32768,32767,10022
1,4788,-19288,380,6380,-32768,4026
1,13468,-11140,-7856,29054,-28780,-18387
1,16424,-3428,-4148,-4522,8032,-12855
1,8140,-11012,3212,-32768,32767,22941
1,4944,-14892,-1400,18592,-32768,-4140
1,14016,-12280,-4428,22712,-17159,-11375
1,11108,-8128,564,15883,-15130,-15820
1,24616,-1572,-6228,-13106,16190,-9863
1,9408,-8304,-1992,-32768,32767,19974
1,1900,-21896,-956,6609,-32472,3689
1,9984,-9816,-7704,32767,-32768,-25277
1,19120,-1880,-2708,-4485,12866,-13710
1,9872,-11796,-5576,-32768,32767,16247
1,-2720,-18676,4648,10488,-32768,548
1,16296,-10480,-10212,32767,-32768,-17197
1,11068,-6228,2432,12656,354,-12659
1,16580,-4064,-9340,-32768,32767,21610
1,-68,-20984,5412,-32768,30147,29978
1,2116,-16932,-6048,14987,-32768,-18481
1,9536,-11140,-7120,27633,-24102,-26533
1,13020,-7204,1708,-295,7688,-20438
1,6144,-9380,-6108,-32768,32767,14718
1,-1392,-22472,4476,-1120,-29857,5964
1,9476,-13764,-7676,27189,-32768,-20626
1,12872,-10320,-3564,19530,-3548,-17642
1,16756,-5984,-1516,-266,2603,-9353
1,13860,-10720,-17356,-32768,32767,25652
1,-8720,-25952,16884,-3258,-13030,8120
1,9840,-13376,-6344,25581,-32768,-19061
1,11720,-9404,-76,17737,-15877,-10774
1,17412,-5268,-4520,1977,-4406,-11593
1,6652,-13748,-1284,-32768,32767,5869
1,3284,-14160,7752,9670,-32768,320
1,18664,-8632,-9676,30114,-26282,-9748
1,16748,-2552,252,4438,-6049,-4623
1,8924,-12164,-4424,-32768,32767,15452
1,4244,-17700,6384,10111,-32768,-5425
1,15880,-7744,-9580,32767,-32768,-18451
1,14960,-2696,1436,20413,-13809,-16707
1,19464,-2448,-7696,-32768,32767,14929
1,3488,-15884,16952,-22373,28681,14165
1,8292,-13984,-2680,32767,-32768,-10588
1,13816,-5296,1076,26115,-18077,-11811
1,17604,-6948,-9532,-32768,32767,4475
1,6604,-13336,15968,-22957,3717,17929
1,7368,-15180,-4108,30957,-32768,-16033
1,13704,-5504,128,18919,-4783,-21510
1,16848,-2780,-6808,-32768,32767,18159
1,8224,-21176,8112,-24904,1397,21324
1,6932,-14908,-5364,32696,-32768,-22285
1,14844,-4072,-3328,23106,-6293,-24489
1,17212,-3364,-7860,-32768,32767,14469
1,7284,-21048,9140,-9059,-12257,16902
1,8440,-12464,-5716,32767,-32768,-24468
1,20684,-276,-2640,-1637,11768,-5055
1,12080,-10056,3380,-32768,32767,18785
1,7208,-15052,-588,17800,-32768,-7904
1,15852,-5920,-4992,32212,-19039,-17101
1,19660,-2236,-6232,-32768,28625,6248
1,11416,-16612,6300,-32768,15300,24587
1,5784,-15324,-3988,31117,-32768,-16159
1,16268,-4100,-4512,29823,-11678,-28152
1,23764,2320,-3060,-25350,13349,-1532
1,9880,-8524,308,-32768,32767,20488
1,964,-19068,1088,18905,-32768,-2404
1,16516,-9164,-2892,32767,-26447,-15191
1,18412,-2528,-2584,5297,-8147,-16633
1,10808,-7364,-9996,-32768,32767,20525
1,6272,-25204,5552,-20524,-8547,18680
1,4324,-18352,-3612,23420,-32768,-23706
1,14708,-4084,-6496,32767,-13203,-32768
1,23804,3640,-1520,-21218,15460,1592
1,7384,-10376,4312,-32768,32767,21887
1,2064,-15888,1544,23303,-32768,-9464
1,14268,-7360,-9448,32767,-32768,-26619
1,21572,336,-3104,-26627,23482,-5549
1,8268,-8328,6096,-32768,32767,14685
1,1284,-19616,-520,12196,-32768,-378
1,14368,-7372,-9364,32767,-32768,-29371
1,21912,2948,-184,-20829,13494,-6265
1,8368,-10704,2340,-32768,32767,17469
1,-664,-15996,-1404,22084,-32768,-9495
1,15864,-8108,-12324,32767,-29564,-25606
1,21812,1820,-864,-9019,3894,-12091
1,9576,-8872,-368,-32768,32767,14062
1,8272,-14820,4948,2605,-29061,3122
1,10452,-10600,-6044,32767,-32768,-19161
1,21564,532,-4532,11308,6366,-12197
1,13020,-6324,-5968,-32768,32767,15498
1,4976,-16544,8528,-6047,-21228,9043
1,9232,-13264,-7212,30685,-32768,-19240
1,17340,-4148,-5408,24428,-2225,-20385
1,21336,-40,-7092,-32768,32767,-3097
1,3280,-13724,21156,-32768,32767,16616
1,5724,-18036,-2948,9974,-32768,-9982
1,12016,-10032,-8936,32767,-32768,-23878
1,18372,-484,-860,8724,1496,-16946
1,2080,-8680,-6276,-32768,32767,21974
1,-1792,-17208,2544,16491,-32768,-2288
1,12844,-11316,-9376,28123,-32768,-17517
1,13956,-5972,-1972,25023,-4363,-19647
1,17212,-1092,868,1002,4355,-12607
1,13392,-8140,-11168,-32768,32767,10453
1,-48,-14960,15600,1810,-31042,8763
1,13224,-9952,-5604,32767,-32768,-19644
1,17004,128,1680,23466,-14360,-9196
1,21068,1296,-2912,-27007,15255,12553
1,7756,-11952,3748,-32768,32767,17079
1,-944,-19680,5564,4701,-32768,-3776
1,14508,-7276,-15064,32767,-32768,-26615
1,21084,-180,-5968,-490,6497,2119
1,9884,-10024,-11500,-32768,32767,17368
1,7824,-22948,-984,-6270,-4567,18104
1,1548,-23200,-2204,16417,-32768,-17326
1,14120,-6732,-10872,32767,-32768,-32768
1,19012,256,-3396,-23633,17484,641
1,4740,-11484,2904,-32768,32767,27933
1,5640,-16904,5624,-3068,-29565,3469
1,5828,-14028,-5504,22315,-32768,-23551
1,15288,-7528,-8760,21889,-10213,-20396
1,17832,-5088,-19068,-32768,32767,13173
1,-492,-22780,15820,-20660,31123,18725
1,2716,-17880,-1744,15564,-32768,-18851
1,12040,-7160,-11676,32767,-32768,-29926
1,13064,-3704,2248,16601,-8460,-8966
1,17996,-5668,-8760,-32768,32767,16318
1,9392,-11724,4368,-21213,19803,15202
1,4204,-19436,-1584,15296,-32768,-2955
1,7476,-11856,-10880,32767,-32768,-19594
1,16392,-6116,-3408,-3943,-148,1601
1,12440,-12844,-16184,-32768,32767,-7608
1,5420,-9700,17124,-8714,20598,1708
1,11280,-16772,-13136,32767,-32768,6386
1,22752,-2108,-10812,-6047,4713,-4651
1,11380,-12320,1520,-32768,32767,-19399
1,14592,-5900,3408,12062,-21368,6255
1,11576,-13452,-7308,32767,-32768,12515
1,22932,2164,-7712,-6327,-2170,1433
1,2276,-10252,-2168,-32768,32767,29157
1,7384,-27928,-11628,-10537,-25067,-2583
1,6564,-14280,-6576,24326,-10294,-28636
1,13560,-7272,-7704,30776,-13165,-32001
1,19632,-1352,-1860,8026,-4265,-7670
1,12844,-5880,-5076,-32768,32767,21963
1,8556,-13232,7556,-25527,10109,28370
1,5996,-17784,-1264,10929,-32768,-10208
1,10804,-8876,-9312,32399,-28774,-32768
1,21504,-2180,-4200,-18339,18292,1817
1,16364,-8060,1364,-27867,22503,10824
1,10856,-11660,-1016,8998,-26538,-88
1,11172,-11132,-4728,25703,-22487,-12920
1,23948,-2004,-9140,-12814,12876,-3019
1,8964,-11796,-924,-32768,32767,13314
1,5636,-15324,4120,4759,-30752,-6839
1,14564,-8856,-12280,32767,-32768,-19376
1,18852,-1584,-3440,9822,1190,-13497
1,9120,-6396,-7592,-32768,32767,29089
1,5136,-16324,8724,-21813,7908,15713
1,6012,-17868,-3144,14378,-32768,-16324
1,12620,-8700,-6628,24291,-14830,-28679
1,17416,-2536,228,8809,7816,-12337
1,10272,-10124,-3076,-32768,32767,23008
1,3696,-16964,8828,-12103,-11915,6019
1,7472,-16288,-5848,20553,-32768,-16105
1,12868,-7572,-4652,25290,-9709,-25798
1,18280,-2476,-4204,-30053,28199,13916
1,3788,-20032,7384,-26009,32767,12689
1,4748,-15912,680,21887,-32768,-13012
1,17032,-6072,-9104,32663,-11188,-24662
1,22592,664,-2952,-22795,18343,10105
1,9688,-13512,-648,-32768,32767,19474
1,-360,-20988,8424,2390,-27756,340
1,10560,-10512,-8408,32767,-32768,-28967
1,21184,796,352,5510,4618,-11354
1,12900,-7144,-1728,-32768,32767,25660
1,2620,-14952,11220,-13513,9705,11937
1,2832,-17348,-972,21648,-32768,-18590
1,16388,-7532,-6216,22271,-3995,-28504
1,20608,-304,-1364,-22361,15652,5157
1,6112,-12456,1656,-32768,32767,18812
1,1428,-19952,7116,-6297,-25395,2312
1,10972,-12228,-6480,28211,-32768,-23150
1,13188,-6972,-52,18393,-6211,-19286
1,19400,-2872,-2144,-6110,5423,1603
1,5148,-11720,2004,-32768,32767,18881
1,1860,-20088,6524,-7587,-24480,4871
1,7792,-12736,-7568,32087,-32768,-25840
1,14156,-6092,-2312,21835,-6996,-27757
1,23116,404,-4152,-31260,25412,9608
1,4744,-11084,3908,-32768,32767,20064
1,2716,-22316,-2680,-1846,-14338,6450
1,4640,-16700,2268,23487,-30809,-21314
1,13628,-5376,-108,24579,-32768,-15154
1,19916,-5116,-4612,-7191,3870,12305
1,-2784,-14256,2696,-31318,32767,7697
1,2344,-17744,7332,-2372,-32768,-1317
1,12628,-11624,-172,6020,1983,-6278
1,6868,-14340,7800,3267,-2144,-6514
1,11920,-12004,4148,10903,-3936,-9087
1,13480,-9156,4940,13763,-3350,-15017
1,12388,-3312,8480,13944,1075,-17859
1,17096,1516,8388,-1189,5666,377
1,13176,-1540,10684,-5388,3533,5313
1,13840,-4420,7656,-3366,7773,-128
1,11852,-4288,10816,-65,5547,-1445
1,11600,-1884,12728,-1068,2891,-1709
1,10888,-3108,11800,-2288,4580,60
1,10188,-3476,12796,-2755,3294,-1207
1,13652,728,13192,-6169,1701,7642
1,8552,-7344,13604,-6333,3803,6124
1,8252,-8760,11032,311,3859,-8900
1,10340,-6184,11712,-1399,954,-4553
1,10288,-6480,12044,-2018,2270,-1670
1,7884,-6444,12400,1845,-1931,3095
1,8352,-8160,14300,2421,-3441,-499
1,9028,-9632,10028,-4659,-2593,-948
1,8468,-8332,13488,-982,2341,2110
1,13260,-5880,7368,148,2112,700
1,8052,-8748,12132,-1855,-8152,7006
1,8568,-8964,10604,9699,-32768,5084
1,12888,-7708,3528,17637,-26311,-864
1,10800,-10600,624,-32768,32767,16029
1,2124,-20316,8676,-10815,1764,8831
1,5404,-16200,-3096,17669,-32768,-23188
1,13848,-6012,3956,30644,-6833,-25837
1,25036,-1204,-4664,-18317,5227,12439
1,2492,-13612,6412,-32768,32767,13027
1,1484,-19900,-1800,5152,-32768,-5329
1,15292,-8548,-4000,28947,-19394,-21935
1,16692,-3472,3224,14884,-8871,-18558
1,16740,-4780,-4300,-32768,32767,23591
1,2668,-22580,4272,-32451,15594,16147
1,1880,-16928,880,20162,-32768,-13219
1,16584,-6896,-5132,16791,-7611,-20133
1,17260,-3436,4132,5753,3831,-7756
1,12036,-5208,-1908,-32768,32767,22281
1,6464,-22424,5288,-10881,-2153,13773
1,2364,-16640,-288,23034,-32768,-14756
1,16224,-6628,-7204,26660,-5937,-26665
1,19032,176,3800,7398,-174,-7308
1,14516,-5888,-5496,-32768,31540,25694
1,7180,-20300,9976,-16268,11339,7166
1,6752,-12792,-1176,28783,-32768,-20794
1,18092,-2744,-528,27623,2931,-24215
1,19392,176,2240,-22039,9403,16884
1,12780,-4020,-2172,-32768,32767,21202
1,4680,-19264,1220,1986,-4812,7732
1,6636,-9348,-6204,29570,-32768,-27313
1,16512,-5580,-480,25594,1935,-18413
1,21316,-2076,-1288,-22607,10213,12013
1,6892,-9940,3460,-32768,32767,17791
1,3912,-16416,1880,8653,-21922,-4941
1,10664,-12880,-6776,27855,-32768,-22633
1,14756,-5268,-2912,23604,3882,-26118
1,20764,-1264,-1944,-32768,22789,21140
1,5596,-10980,-1640,-32768,32767,22402
1,1704,-16644,3300,20165,-32768,-14479
1,13512,-5812,-13444,32767,-32768,-32768
1,16184,-3616,192,6607,5893,-11980
1,12288,-4048,-6128,-32768,32767,23480
1,5520,-27776,7928,-12702,5562,20512
1,-356,-17440,-3592,29705,-32768,-25040
1,17496,-7040,-13136,22868,-4448,-21909
1,20156,-1892,-384,-11360,11641,247
1,8656,-7496,-220,-32768,32767,16841
1,-1740,-19356,7672,2323,-15636,1144
1,12036,-9464,-10588,32767,-32768,-26446
1,15548,-3384,144,21604,1856,-12715
1,17220,-4224,-6556,-32768,32767,21538
1,3392,-17500,3852,-32768,32767,22670
1,-296,-17676,2268,18361,-32768,-16177
1,23732,-816,-6252,20063,-20137,-24755
1,19176,-296,4344,-2894,11106,-10031
1,8004,-5740,-4716,-32768,32767,24828
1,1616,-21716,4304,-9484,-22894,11135
1,5728,-15872,-7216,31987,-32768,-24689
1,15736,-6964,-2480,24840,-258,-31030
1,23200,2040,-68,-13520,14141,-4077
1,11524,-5340,-2432,-32768,32767,22203
1,3104,-21932,10172,-15466,-18527,15326
1,4736,-14864,-7840,29072,-32768,-21206
1,14216,-10576,176,28125,-1888,-25631
1,28152,1436,-4704,-9561,6459,3289
1,9636,-9392,-3384,-32768,32767,16050
1,1456,-21016,13672,-11793,-15613,9323
1,6768,-12868,-4876,26070,-32768,-22115
1,14612,-7436,1268,19731,-10552,-8108
1,21260,-3852,-5864,-18308,24100,2828
1,2232,-12972,8212,-24711,32767,9875
1,4564,-16764,6548,3766,-32768,-2314
1,12288,-9728,-6412,32767,-32768,-18570
1,20760,-2384,-5132,11014,-4318,-3692
1,14268,-6636,-10536,-32768,32767,22927
1,492,-32292,12116,-23445,11526,18378
1,860,-21384,-1576,12835,-32768,-15807
1,16628,-6128,-5984,18213,-28165,-20394
1,16852,-6504,48,-4959,18879,-9098
1,11152,-2612,-2124,-32768,32767,25484
1,2168,-22140,-1928,-1367,-2488,12894
1,-144,-14612,-6520,28160,-32768,-27825
1,17900,-8056,-8348,16105,-10834,-18071
1,17236,-5152,-376,-16243,26758,-4765
1,9000,-4828,4080,-32768,32767,17587
1,2004,-17820,5276,2500,-32768,4502
1,8016,-9124,-11760,32524,-32768,-25816
1,17916,-5424,-2892,8644,8492,-9224
1,16632,-5788,-7572,-32768,32176,15355
1,5640,-22912,6800,-26420,17106,20879
1,-1536,-23324,-3192,10661,-32768,-5249
1,10804,-7080,-9768,29677,-32768,-30744
1,18316,-6288,-8112,-12674,28326,-1698
1,5128,-3936,624,-32768,32767,18809
1,-2372,-21736,-1064,10702,-30814,-3347
1,10828,-10800,-9516,32767,-32768,-26300
1,14368,-6312,332,15396,7500,-19382
1,17704,-4080,-420,-23593,15121,8531
1,9476,-9328,-2712,-32768,32767,17994
1,-3072,-18680,8448,-1619,-32768,12318
1,7512,-10276,-14924,32767,-32768,-28192
1,15664,-4228,320,10460,6012,-18819
1,16560,-5868,-1668,-32768,28362,8131
1,5728,-6696,948,-32768,32767,18279
1,2416,-19932,4212,3582,-32350,8965
1,6712,-9664,-11664,32767,-32768,-27731
1,14912,-7056,-1196,9565,3269,-18113
1,17484,-4708,-948,-6837,5225,-5522
1,5832,-6820,-8232,-32768,32767,13954
1,4328,-21124,5408,-4768,-22261,16061
1,5940,-12172,-12196,32767,-32768,-27437
1,18036,-5728,-3828,24035,8042,-22383
1,19052,-3160,588,-21016,14061,9066
1,3784,-16,20,-32768,32767,22907
1,-3828,-21636,4704,17016,-32768,-1307
1,8804,-8928,-13136,32767,-32768,-26132
1,15172,-6240,-1132,11925,5750,-17495
1,17484,-5508,-1472,-21918,23811,148
1,4796,-7368,1412,-32768,32767,17478
1,1712,-19480,4784,5622,-27083,1624
1,12980,-8104,-10608,32767,-32768,-22520
1,15144,-5936,-1168,11166,-1929,-13742
1,17872,-4820,-2092,-19876,18480,2969
1,7028,-7632,3716,-32768,32767,17888
1,660,-19384,1932,1098,-32768,3920
1,11176,-9360,-12828,32767,-32768,-25261
1,14680,-6048,-3176,8732,207,-11513
1,16900,-5756,-3552,-15870,15027,-2280
1,6156,-7624,-1832,-32768,32767,20507
1,-384,-20260,2024,-6795,-24075,8384
1,13768,-13408,-3480,8559,-24041,-3008
1,8456,-15016,656,4620,-4393,-6672
1,11668,-10604,-1216,7416,-13347,-9141
1,12400,-11844,296,-1038,4833,-788
1,11772,-11784,-128,-2683,-671,1047
1,11936,-11788,-292,-618,-6,-329
1,11924,-11644,580,-223,477,-282
1,12028,-11484,200,833,757,-1094
1,11808,-11968,272,-279,1233,-132
1,12164,-11536,-28,139,484,64
1,12004,-11760,0,192,587,-868
1,12112,-11432,480,1166,34,-90
1,12116,-11992,200,1799,-193,-1624
1,11552,-11236,596,3303,-105,-1011
1,12316,-11504,544,3850,941,-4232
1,12736,-10512,988,4817,1306,-2021
1,14476,-12420,-4652,11055,6724,3260
1,9096,-2280,5404,27840,-3858,-3678
1,14256,-2636,14396,14328,28,-2350
1,13612,-2512,16120,535,12143,-2257
1,11528,-5208,9764,-6317,91,-4732
1,13544,-2968,11948,-2444,1794,-166
1,11284,-4296,10104,-4862,837,-489
1,12248,-6300,9696,-6304,2160,1634
1,11112,-6416,9312,-113,578,293
1,11664,-5852,9532,41,903,60
1,11868,-6892,9032,-679,203,646
1,11920,-7076,9476,-164,986,656
1,11540,-7360,9264,186,254,-371
1,11516,-6848,10476,-356,140,472
1,11700,-6748,10064,-359,573,226
1,11404,-6540,10120,90,440,166
1,11304,-6404,9760,-125,281,-577
1,11296,-7324,9988,846,557,-201
1,11112,-7512,10172,-423,-630,486
1,11740,-8248,9772,117,96,157
1,11336,-7108,10252,-522,30,-46
1,11264,-7360,10128,-406,-145,5
1,11444,-6880,10176,-342,-241,269
1,11492,-7204,10116,-383,81,303
1,11364,-7124,9980,-420,210,117
1,11156,-7256,9940,-394,260,19
1,11592,-6988,9904,-275,256,188
1,11236,-7120,10056,-509,315,375
1,11292,-6984,10096,-172,41,171
1,11232,-7224,10248,-405,396,-104
1,11048,-7520,9792,-361,603,1787
1,11120,-7796,9572,-227,228,-113
1,11076,-7324,10340,-384,235,349
1,11212,-7648,9824,-139,-270,-136
1,11108,-7704,9940,-228,315,464
1,11052,-7828,9844,-414,324,328
1,10856,-7700,10060,-328,310,116
1,10984,-7820,9484,-301,256,385
1,11012,-7920,9732,-266,273,123
1,10808,-7872,9952,-278,267,-21
1,10876,-7888,9832,-291,262,14
1,10836,-7924,9932,-306,164,177
1,10756,-7984,9804,-212,148,-98
1,10984,-7560,10564,-460,-164,155
1,10580,-8100,9704,-300,121,-72
1,10772,-8028,9976,-261,258,1
1,10820,-8148,9900,-232,231,-50
1,10524,-8220,10004,-240,233,141
1,10768,-8268,9720,-274,186,3
1,10700,-8168,9912,-219,307,35
1,10656,-8304,10000,-288,332,110
1,10524,-8540,9908,-276,236,17
1,10664,-8352,9836,-358,168,93
1,10736,-8392,9752,-297,155,16
1,10512,-8652,9948,-283,189,95
1,10532,-8472,9888,-282,252,179
1,10368,-8648,9664,-160,593,641
1,10396,-8508,9816,-249,353,156
1,10840,-8396,10028,-383,-71,611
1,10600,-8396,9452,-167,-2,45
1,10448,-8864,9860,-154,168,-192
1,10392,-8776,9904,-129,239,-280
1,10200,-10028,10152,-355,1117,202
1,10388,-9228,9588,602,473,-917
1,10964,-8124,10872,361,-387,-920
1,10236,-7460,10660,1645,-279,-464
1,10416,-6568,10584,986,-154,-591
1,10588,-7928,10576,-1946,216,682
1,10836,-7652,10092,152,799,-465
1,10504,-7812,9816,90,232,-317
1,10404,-8344,10832,-58,1621,538
1,10624,-7744,9608,-764,-1948,1929
1,10520,-9052,10188,-890,-412,1604
1,10276,-8712,10040,-72,775,-168
1,9956,-8896,11676,-391,-1294,2256
1,11144,-9608,10012,-934,-11277,1871
1,11072,-7736,6684,1425,-331,-3824
1,12520,-7160,9064,67,4150,-5320
1,11008,-7780,9528,-2489,-480,-1359
1,11260,-8488,8764,-2152,1774,-2115
1,12120,-8028,8592,389,2067,830
1,11104,-7620,10016,-112,1368,394
1,11520,-8240,10552,-313,-629,565
1,11504,-8184,9904,20,-755,812
1,11644,-8864,9172,-1506,-1271,241
1,11560,-8440,8796,-859,686,-1112
1,11644,-8140,9252,-785,2021,-128
1,11184,-7736,10740,-792,612,-1761
1,11468,-7824,8512,-778,253,-2040
1,11544,-6852,9124,2492,3321,-1499
1,11372,-7280,12252,1465,888,2975
1,10840,-7852,10588,3265,-2638,2726
1,11444,-6076,9356,-816,2171,1609
1,9984,-7596,11636,401,-1527,-694
1,13016,-6460,11276,-917,-6653,-3406
1,11880,-7448,9116,-6270,-1057,1419
1,9956,-8560,9284,-4248,7628,-2753
1,14100,-7664,8904,-1835,1182,-4581
1,11928,-7452,9060,-582,-720,349
1,12236,-8100,8896,-816,1030,-224
1,11840,-6656,9896,616,1139,-1173
1,12284,-6820,10160,-709,531,-396
1,11876,-6860,9736,678,1250,158
1,12120,-7752,8864,-387,848,-1017
1,11640,-6884,10580,-37,317,-164
1,12120,-7400,8316,-318,1303,-942
1,11480,-6984,10724,68,8,-59
1,11800,-6424,10056,81,216,-428
1,11520,-6844,10440,-557,-1719,172
1,12240,-6996,8932,-663,-1669,-1362
1,12084,-5728,10048,-293,-21,-1061
1,12708,-5416,8916,-55,395,-1472
1,12232,-6472,10116,-823,153,815
1,12316,-5620,9292,-311,388,-169
1,12212,-6912,9628,-482,-117,-256
1,12564,-5384,9520,-150,494,240
1,12504,-6348,9532,-754,-924,769
1,13032,-3260,11308,-2071,-5150,6797
1,10912,-12240,8228,-12311,64,7417
1,8880,-9748,6356,186,7628,-10469
1,14704,-10152,4728,163,-909,-3679
1,13392,-8128,5940,1858,199,-21
1,13312,-8040,6548,382,539,-692
1,13644,-7032,7904,1001,-688,864
1,14808,-8748,6112,-433,-9906,1972
1,16084,-8296,5200,4733,-3845,-4513
1,13920,-4412,2192,18181,-21069,-14537
1,16516,-2400,1888,15494,-5938,-6950
1,16292,-2792,1184,7220,2507,1857
1,14460,-1108,2476,1173,2837,2751
1,15796,-1608,1780,-1533,26,6947
1,15228,-3804,1804,-3335,3055,-418
1,14996,-4136,2552,-3878,1528,5095
1,17068,-5056,1692,-10403,17747,-5058
1,15680,-2968,6028,-10754,6451,308
1,13112,-6160,7632,-5437,8132,-3036
1,14376,-4660,6820,4978,-8826,-1774
1,17940,-3408,1072,8987,-17226,994
1,16232,-3848,2132,-2671,1640,87
1,15492,-4724,2760,-5325,5327,1886
1,14664,-4724,4496,-4065,6246,-128
1,16148,-4424,3240,156,-544,87
